// General information: 
//  MT Manager version: 2022.2.0 
//  XDA version: 2022.2.0 build 7381 rev 124627 built on 2023-07-19
// Device information: 
//  DeviceId: 10B4151A
//  ProductCode: MTW2-3A7G6
//  Firmware Version: 4.14.0
//  Hardware Version: 3.0.0
// Device settings: 
//  Filter Profile: human(46.1)
//  Option Flags: Orientation Smoother Disabled, Position/Velocity Smoother Disabled, Continuous Zero Rotation Update Disabled, AHS Disabled, ICC Disabled
// Coordinate system: ENU
PacketCounter	SampleTimeFine	Quat_q0	Quat_q1	Quat_q2	Quat_q3	Roll	Pitch	Yaw
50856		0.818433	-0.026057	-0.569001	-0.075675	7.057045	-69.280183	-15.444377
50857		0.817539	-0.027066	-0.570367	-0.074695	6.713493	-69.494351	-15.100306
50858		0.816625	-0.028200	-0.571738	-0.073777	6.342049	-69.710614	-14.743907
50859		0.815713	-0.029280	-0.573120	-0.072720	5.951615	-69.927875	-14.352523
50860		0.814874	-0.030289	-0.574393	-0.071656	5.563585	-70.128537	-13.957298
50861		0.814105	-0.031267	-0.575565	-0.070568	5.164665	-70.314185	-13.546890
50862		0.813360	-0.032314	-0.576671	-0.069657	4.770147	-70.490051	-13.161348
50863		0.812667	-0.033303	-0.577697	-0.068772	4.385131	-70.653266	-12.782878
50864		0.812040	-0.034326	-0.578601	-0.068073	4.014549	-70.798401	-12.437228
50865		0.811528	-0.035119	-0.579360	-0.067318	3.683761	-70.919656	-12.108105
50866		0.811051	-0.035788	-0.580064	-0.066646	3.397802	-71.030704	-11.820498
50867		0.810613	-0.036318	-0.580719	-0.065978	3.146319	-71.132529	-11.556438
50868		0.810233	-0.036816	-0.581270	-0.065514	2.938182	-71.218345	-11.349982
50869		0.809926	-0.037239	-0.581711	-0.065157	2.766131	-71.287158	-11.182540
50870		0.809681	-0.037669	-0.582042	-0.065005	2.628175	-71.339869	-11.066882
50871		0.809496	-0.038033	-0.582279	-0.064961	2.526513	-71.378237	-10.991046
50872		0.809316	-0.038216	-0.582518	-0.064966	2.487071	-71.414138	-10.966697
50873		0.809139	-0.038281	-0.582749	-0.065053	2.498348	-71.447123	-10.990127
50874		0.809019	-0.038336	-0.582884	-0.065298	2.541117	-71.466126	-11.057308
50875		0.808971	-0.038351	-0.582909	-0.065672	2.617101	-71.468626	-11.165336
50876		0.808947	-0.038341	-0.582888	-0.066148	2.719295	-71.464013	-11.305964
50877		0.808934	-0.038232	-0.582855	-0.066662	2.857347	-71.456078	-11.477414
50878		0.808949	-0.038017	-0.582794	-0.067133	3.015553	-71.442741	-11.656835
50879		0.809014	-0.037882	-0.582650	-0.067674	3.160208	-71.418518	-11.835187
50880		0.809105	-0.037712	-0.582471	-0.068233	3.316072	-71.388712	-12.023513
50881		0.809207	-0.037476	-0.582280	-0.068772	3.485641	-71.356244	-12.218432
50882		0.809328	-0.037226	-0.582057	-0.069373	3.669793	-71.318642	-12.431988
50883		0.809486	-0.036966	-0.581777	-0.070006	3.859123	-71.272578	-12.652631
50884		0.809655	-0.036664	-0.581481	-0.070671	4.064964	-71.223309	-12.889006
50885		0.809812	-0.036347	-0.581195	-0.071384	4.284551	-71.174660	-13.141717
50886		0.809976	-0.035981	-0.580898	-0.072124	4.521708	-71.123282	-13.410369
50887		0.810142	-0.035520	-0.580596	-0.072913	4.794140	-71.069096	-13.710548
50888		0.810264	-0.035072	-0.580341	-0.073802	5.085035	-71.020606	-14.038430
50889		0.810374	-0.034503	-0.580108	-0.074689	5.409548	-70.972574	-14.389750
50890		0.810451	-0.033935	-0.579904	-0.075688	5.757232	-70.927332	-14.773556
50891		0.810503	-0.033207	-0.579751	-0.076626	6.139211	-70.885928	-15.173462
50892		0.810521	-0.032439	-0.579626	-0.077696	6.559849	-70.845867	-15.619542
50893		0.810520	-0.031589	-0.579534	-0.078735	6.998210	-70.808117	-16.073954
50894		0.810438	-0.030687	-0.579542	-0.079872	7.477372	-70.781153	-16.572832
50895		0.810284	-0.029655	-0.579659	-0.080967	7.992929	-70.765725	-17.093778
50896		0.810058	-0.028559	-0.579869	-0.082117	8.545463	-70.759640	-17.650869
50897		0.809764	-0.027276	-0.580190	-0.083168	9.139928	-70.764410	-18.226191
50898		0.809389	-0.025958	-0.580617	-0.084256	9.762735	-70.780504	-18.829786
50899		0.808956	-0.024488	-0.581144	-0.085223	10.415471	-70.806387	-19.440655
50900		0.808463	-0.022977	-0.581741	-0.086233	11.097388	-70.838256	-20.080910
50901		0.807931	-0.021304	-0.582410	-0.087134	11.812994	-70.875138	-20.732333
50902		0.807349	-0.019670	-0.583133	-0.088070	12.534478	-70.917473	-21.395772
50903		0.806712	-0.017970	-0.583941	-0.088915	13.269869	-70.968512	-22.060050
50904		0.806007	-0.016377	-0.584817	-0.089849	14.007191	-71.027879	-22.742317
50905		0.805213	-0.014713	-0.585828	-0.090672	14.765394	-71.102656	-23.430266
50906		0.804359	-0.013141	-0.586889	-0.091625	15.537943	-71.181863	-24.150821
50907		0.803466	-0.011600	-0.587994	-0.092581	16.315813	-71.264893	-24.879523
50908		0.802538	-0.010163	-0.589108	-0.093706	17.108257	-71.346203	-25.645237
50909		0.801568	-0.008765	-0.590265	-0.094861	17.910520	-71.430572	-26.426551
50910		0.800591	-0.007469	-0.591377	-0.096290	18.740632	-71.503028	-27.266684
50911		0.799623	-0.006057	-0.592465	-0.097733	19.607405	-71.564663	-28.135289
50912		0.798652	-0.004671	-0.593510	-0.099391	20.509391	-71.612443	-29.059000
50913		0.797710	-0.003251	-0.594494	-0.101118	21.427566	-71.645283	-30.002110
50914		0.796784	-0.001821	-0.595420	-0.102987	22.370016	-71.662158	-30.980430
50915		0.795876	-0.000322	-0.596315	-0.104829	23.321138	-71.668622	-31.959741
50916		0.794966	0.001131	-0.597189	-0.106742	24.270975	-71.667620	-32.947478
50917		0.794116	0.002651	-0.597982	-0.108583	25.207540	-71.651383	-33.910614
50918		0.793269	0.004141	-0.598757	-0.110438	26.133936	-71.629160	-34.867391
50919		0.792483	0.005710	-0.599461	-0.112179	27.040652	-71.594298	-35.788682
50920		0.791752	0.007221	-0.600091	-0.113869	27.902824	-71.550533	-36.666143
50921		0.791090	0.008816	-0.600654	-0.115390	28.734233	-71.496993	-37.492082
50922		0.790462	0.010353	-0.601171	-0.116857	29.526277	-71.439228	-38.279095
50923		0.789890	0.011951	-0.601640	-0.118151	30.284680	-71.376139	-39.013297
50924		0.789401	0.013469	-0.602007	-0.119385	30.981810	-71.304106	-39.687875
50925		0.788984	0.015021	-0.602304	-0.120453	31.634682	-71.226347	-40.301914
50926		0.788607	0.016471	-0.602549	-0.121505	32.241970	-71.145981	-40.877383
50927		0.788317	0.017874	-0.602698	-0.122442	32.787932	-71.059641	-41.386058
50928		0.788072	0.019151	-0.602788	-0.123379	33.284008	-70.971255	-41.855242
50929		0.787881	0.020408	-0.602831	-0.124184	33.735396	-70.882637	-42.270498
50930		0.787705	0.021487	-0.602850	-0.125028	34.141829	-70.797503	-42.658618
50931		0.787576	0.022498	-0.602832	-0.125743	34.497081	-70.716149	-42.990526
50932		0.787446	0.023418	-0.602820	-0.126445	34.828380	-70.640032	-43.304763
50933		0.787365	0.024241	-0.602770	-0.127029	35.104730	-70.568900	-43.562387
50934		0.787339	0.024801	-0.602634	-0.127732	35.315471	-70.495897	-43.785790
50935		0.787409	0.025296	-0.602396	-0.128320	35.463197	-70.419628	-43.942131
50936		0.787542	0.025653	-0.602090	-0.128868	35.553567	-70.344252	-44.049214
50937		0.787699	0.025922	-0.601772	-0.129338	35.607286	-70.275372	-44.120464
50938		0.787845	0.026110	-0.601481	-0.129767	35.642688	-70.215309	-44.176491
50939		0.787986	0.026266	-0.601204	-0.130159	35.668187	-70.159947	-44.222189
50940		0.788180	0.026423	-0.600875	-0.130476	35.667661	-70.101964	-44.235604
50941		0.788407	0.026575	-0.600516	-0.130724	35.647147	-70.043833	-44.223862
50942		0.788722	0.026708	-0.600048	-0.130941	35.588649	-69.975937	-44.173137
50943		0.789074	0.026800	-0.599535	-0.131156	35.509236	-69.905136	-44.104798
50944		0.789457	0.026851	-0.598991	-0.131327	35.405833	-69.834810	-44.012189
50945		0.789860	0.026712	-0.598418	-0.131544	35.260384	-69.768824	-43.897069
50946		0.790290	0.026440	-0.597815	-0.131754	35.077916	-69.706482	-43.755177
50947		0.790740	0.026140	-0.597203	-0.131891	34.875880	-69.647353	-43.590061
50948		0.791226	0.025756	-0.596550	-0.132010	34.643110	-69.588373	-43.399601
50949		0.791781	0.025279	-0.595798	-0.132168	34.372314	-69.521045	-43.182216
50950		0.792326	0.024766	-0.595053	-0.132356	34.101817	-69.454907	-42.970560
50951		0.792876	0.024181	-0.594300	-0.132553	33.816486	-69.390590	-42.750733
50952		0.793439	0.023416	-0.593496	-0.132926	33.508469	-69.322002	-42.537665
50953		0.794009	0.022649	-0.592683	-0.133278	33.196472	-69.253154	-42.319130
50954		0.794550	0.021746	-0.591874	-0.133798	32.883976	-69.184315	-42.125293
50955		0.795066	0.020867	-0.591094	-0.134322	32.586162	-69.117257	-41.944428
50956		0.795546	0.019867	-0.590327	-0.135007	32.291645	-69.051058	-41.790290
50957		0.796022	0.018789	-0.589548	-0.135754	31.989208	-68.984722	-41.639775
50958		0.796472	0.017596	-0.588761	-0.136686	31.690130	-68.915874	-41.517532
50959		0.796905	0.016420	-0.588006	-0.137556	31.394445	-68.852096	-41.392096
50960		0.797321	0.015142	-0.587236	-0.138578	31.098405	-68.785795	-41.287558
50961		0.797703	0.013961	-0.586515	-0.139550	30.828754	-68.722557	-41.197155
50962		0.798072	0.012802	-0.585794	-0.140579	30.574719	-68.656089	-41.125442
50963		0.798429	0.011619	-0.585084	-0.141608	30.319006	-68.592085	-41.054039
50964		0.798760	0.010368	-0.584378	-0.142748	30.068119	-68.527901	-41.002319
50965		0.799052	0.009234	-0.583747	-0.143775	29.842783	-68.471011	-40.957102
50966		0.799316	0.008131	-0.583132	-0.144866	29.639116	-68.412439	-40.936320
50967		0.799527	0.007207	-0.582616	-0.145817	29.474918	-68.362201	-40.928541
50968		0.799690	0.006307	-0.582156	-0.146805	29.334347	-68.315976	-40.945508
50969		0.799847	0.005560	-0.581728	-0.147668	29.215098	-68.270969	-40.960651
50970		0.799968	0.004839	-0.581348	-0.148531	29.112106	-68.230461	-40.989811
50971		0.800067	0.004243	-0.581028	-0.149267	29.029632	-68.195531	-41.018610
50972		0.800172	0.003633	-0.580697	-0.150013	28.943322	-68.159578	-41.045443
50973		0.800273	0.003141	-0.580415	-0.150570	28.863883	-68.130630	-41.053713
50974		0.800298	0.002656	-0.580259	-0.151047	28.800516	-68.118748	-41.070440
50975		0.800288	0.002279	-0.580197	-0.151342	28.751786	-68.119104	-41.077432
50976		0.800248	0.001895	-0.580211	-0.151506	28.697282	-68.133083	-41.068173
50977		0.800098	0.001529	-0.580416	-0.151516	28.662960	-68.173986	-41.064207
50978		0.799867	0.001172	-0.580763	-0.151410	28.642517	-68.234937	-41.063301
50979		0.799607	0.000853	-0.581196	-0.151127	28.620784	-68.310208	-41.042983
50980		0.799311	0.000661	-0.581746	-0.150577	28.609384	-68.402484	-40.999945
50981		0.798988	0.000512	-0.582376	-0.149853	28.596726	-68.508138	-40.937489
50982		0.798677	0.000310	-0.583022	-0.148997	28.554524	-68.622732	-40.838650
50983		0.798453	0.000070	-0.583605	-0.147915	28.452669	-68.739371	-40.664648
50984		0.798271	-0.000214	-0.584182	-0.146610	28.302211	-68.865034	-40.426970
50985		0.798186	-0.000505	-0.584691	-0.145036	28.088939	-68.992057	-40.104932
50986		0.798155	-0.000895	-0.585140	-0.143382	27.824469	-69.118889	-39.733191
50987		0.798175	-0.001266	-0.585554	-0.141565	27.525718	-69.245681	-39.312363
50988		0.798227	-0.001728	-0.585909	-0.139790	27.196549	-69.367579	-38.872132
50989		0.798294	-0.002182	-0.586231	-0.138044	26.863252	-69.483430	-38.429719
50990		0.798352	-0.002747	-0.586509	-0.136504	26.526431	-69.591729	-38.010235
50991		0.798371	-0.003224	-0.586820	-0.135043	26.227222	-69.696844	-37.627758
50992		0.798306	-0.003694	-0.587204	-0.133738	25.969363	-69.805201	-37.298893
50993		0.798178	-0.004012	-0.587678	-0.132398	25.757881	-69.918785	-37.000982
50994		0.798012	-0.004310	-0.588184	-0.131139	25.569756	-70.032489	-36.731367
50995		0.797855	-0.004525	-0.588699	-0.129773	25.381953	-70.146914	-36.446528
50996		0.797666	-0.004804	-0.589234	-0.128488	25.195303	-70.263980	-36.174670
50997		0.797529	-0.005103	-0.589711	-0.127129	24.975551	-70.376723	-35.865513
50998		0.797425	-0.005562	-0.590106	-0.125928	24.725315	-70.481007	-35.552250
50999		0.797367	-0.006081	-0.590423	-0.124775	24.450142	-70.576438	-35.223291
51000		0.797315	-0.006766	-0.590685	-0.123833	24.158554	-70.665132	-34.909000
51001		0.797301	-0.007496	-0.590877	-0.122960	23.852091	-70.744479	-34.589490
51002		0.797310	-0.008328	-0.590993	-0.122285	23.539069	-70.812327	-34.288326
51003		0.797368	-0.009178	-0.591030	-0.121670	23.214717	-70.868732	-33.982462
51004		0.797490	-0.010071	-0.590934	-0.121267	22.891219	-70.903691	-33.698809
51005		0.797679	-0.010947	-0.590735	-0.120913	22.560237	-70.923220	-33.410621
51006		0.797950	-0.011909	-0.590368	-0.120824	22.224049	-70.917206	-33.146656
51007		0.798349	-0.012806	-0.589814	-0.120803	21.881357	-70.882645	-32.876741
51008		0.798839	-0.013794	-0.589084	-0.121025	21.528916	-70.822302	-32.625234
51009		0.799443	-0.014825	-0.588157	-0.121419	21.163499	-70.733848	-32.378930
51010		0.800156	-0.015897	-0.587026	-0.122058	20.798509	-70.614261	-32.157300
51011		0.800914	-0.016859	-0.585840	-0.122654	20.447706	-70.484453	-31.937447
51012		0.801625	-0.017924	-0.584668	-0.123450	20.115117	-70.355032	-31.760900
51013		0.802429	-0.019025	-0.583344	-0.124320	19.763974	-70.205754	-31.575367
51014		0.803391	-0.020331	-0.581733	-0.125447	19.363563	-70.021035	-31.379524
51015		0.804390	-0.021734	-0.580044	-0.126626	18.941619	-69.828840	-31.174864
51016		0.805189	-0.022970	-0.578674	-0.127593	18.582081	-69.676271	-31.000700
51017		0.805933	-0.024083	-0.577425	-0.128347	18.238352	-69.539429	-30.814320
51018		0.806569	-0.025149	-0.576352	-0.128970	17.914734	-69.426401	-30.632857
51019		0.807193	-0.026051	-0.575361	-0.129311	17.596965	-69.323882	-30.420138
51020		0.807905	-0.026942	-0.574265	-0.129553	17.250591	-69.209317	-30.170123
51021		0.808663	-0.027581	-0.573201	-0.129400	16.903590	-69.097748	-29.865732
51022		0.809604	-0.028102	-0.571924	-0.129056	16.523470	-68.957856	-29.503180
51023		0.810630	-0.028233	-0.570605	-0.128421	16.185538	-68.804245	-29.126748
51024		0.811639	-0.028157	-0.569346	-0.127651	15.887665	-68.653385	-28.761936
51025		0.812604	-0.027779	-0.568207	-0.126663	15.646366	-68.511656	-28.410217
51026		0.813521	-0.027274	-0.567139	-0.125673	15.449098	-68.374634	-28.091791
51027		0.814417	-0.026554	-0.566135	-0.124547	15.292280	-68.241320	-27.784587
51028		0.815256	-0.025771	-0.565209	-0.123424	15.164213	-68.115998	-27.500979
51029		0.816048	-0.024824	-0.564378	-0.122179	15.069793	-68.000034	-27.226984
51030		0.816763	-0.023867	-0.563635	-0.121010	15.003921	-67.894032	-26.986831
51031		0.817438	-0.022864	-0.562972	-0.119731	14.942379	-67.798997	-26.737756
51032		0.818039	-0.021898	-0.562390	-0.118532	14.897734	-67.714472	-26.515068
51033		0.818612	-0.020926	-0.561851	-0.117303	14.855918	-67.635944	-26.292104
51034		0.819140	-0.020052	-0.561341	-0.116202	14.816902	-67.562272	-26.090568
51035		0.819655	-0.019174	-0.560849	-0.115097	14.781409	-67.490812	-25.891929
51036		0.820149	-0.018347	-0.560349	-0.114138	14.757609	-67.417582	-25.721334
51037		0.820639	-0.017470	-0.559855	-0.113175	14.746616	-67.343747	-25.558938
51038		0.821122	-0.016595	-0.559342	-0.112340	14.753831	-67.265286	-25.425663
51039		0.821622	-0.015693	-0.558797	-0.111517	14.766305	-67.181921	-25.296538
51040		0.822118	-0.014847	-0.558224	-0.110847	14.787415	-67.093923	-25.193423
51041		0.822617	-0.013999	-0.557641	-0.110194	14.811078	-67.004329	-25.094055
51042		0.823102	-0.013246	-0.557043	-0.109684	14.833985	-66.913284	-25.013858
51043		0.823564	-0.012465	-0.556480	-0.109159	14.865728	-66.826319	-24.938717
51044		0.823959	-0.011733	-0.555994	-0.108742	14.911834	-66.748916	-24.890844
51045		0.824338	-0.011117	-0.555521	-0.108355	14.937893	-66.676256	-24.834812
51046		0.824655	-0.010692	-0.555100	-0.108139	14.953163	-66.612919	-24.798024
51047		0.824927	-0.010220	-0.554758	-0.107861	14.978277	-66.559660	-24.761814
51048		0.825131	-0.009781	-0.554518	-0.107574	15.006589	-66.520843	-24.730535
51049		0.825332	-0.009399	-0.554276	-0.107317	15.026395	-66.482853	-24.697866
51050		0.825506	-0.009083	-0.554061	-0.107114	15.042510	-66.449339	-24.671528
51051		0.825637	-0.008772	-0.553901	-0.106964	15.071930	-66.422204	-24.663113
51052		0.825749	-0.008515	-0.553752	-0.106889	15.101624	-66.396767	-24.665720
51053		0.825877	-0.008231	-0.553568	-0.106875	15.143025	-66.364868	-24.682805
51054		0.825993	-0.007985	-0.553387	-0.106931	15.186650	-66.333244	-24.711296
51055		0.826055	-0.007726	-0.553267	-0.107090	15.255980	-66.307279	-24.772762
51056		0.826075	-0.007498	-0.553197	-0.107316	15.333822	-66.287318	-24.850740
51057		0.826074	-0.007281	-0.553147	-0.107599	15.420327	-66.269340	-24.943094
51058		0.826056	-0.007036	-0.553117	-0.107906	15.518559	-66.252544	-25.046728
51059		0.826031	-0.006810	-0.553088	-0.108256	15.619417	-66.235702	-25.158207
51060		0.826019	-0.006618	-0.553037	-0.108623	15.712356	-66.216465	-25.266004
51061		0.826023	-0.006461	-0.552953	-0.109031	15.799699	-66.193301	-25.374625
51062		0.826055	-0.006324	-0.552825	-0.109443	15.877810	-66.164884	-25.476072
51063		0.826113	-0.006184	-0.552653	-0.109876	15.954369	-66.130203	-25.577671
51064		0.826205	-0.006053	-0.552433	-0.110298	16.021421	-66.089793	-25.669539
51065		0.826334	-0.005906	-0.552161	-0.110700	16.082803	-66.042564	-25.752990
51066		0.826488	-0.005740	-0.551860	-0.111068	16.139440	-65.991531	-25.827381
51067		0.826651	-0.005553	-0.551553	-0.111385	16.192232	-65.940288	-25.891856
51068		0.826813	-0.005374	-0.551255	-0.111668	16.239122	-65.890922	-25.948317
51069		0.826964	-0.005232	-0.550969	-0.111971	16.281919	-65.843837	-26.005337
51070		0.827123	-0.005166	-0.550673	-0.112245	16.302271	-65.798522	-26.043859
51071		0.827270	-0.005170	-0.550393	-0.112537	16.311630	-65.756868	-26.078594
51072		0.827426	-0.005283	-0.550096	-0.112843	16.296922	-65.716112	-26.099447
51073		0.827570	-0.005469	-0.549805	-0.113190	16.273154	-65.677668	-26.120723
51074		0.827707	-0.005728	-0.549520	-0.113562	16.237545	-65.641657	-26.138283
51075		0.827823	-0.006058	-0.549255	-0.113985	16.196080	-65.609426	-26.160059
51076		0.827927	-0.006469	-0.548993	-0.114460	16.145069	-65.579237	-26.183386
51077		0.828016	-0.006954	-0.548742	-0.114993	16.087516	-65.551454	-26.211055
51078		0.828119	-0.007436	-0.548461	-0.115563	16.032663	-65.519174	-26.244481
51079		0.828227	-0.007963	-0.548161	-0.116175	15.971878	-65.485050	-26.279090
51080		0.828346	-0.008495	-0.547840	-0.116799	15.909681	-65.448259	-26.313928
51081		0.828465	-0.009044	-0.547505	-0.117478	15.850136	-65.409260	-26.357406
51082		0.828585	-0.009631	-0.547145	-0.118264	15.794771	-65.366274	-26.417259
51083		0.828713	-0.010181	-0.546787	-0.118975	15.737180	-65.323770	-26.465643
51084		0.828830	-0.010761	-0.546430	-0.119748	15.682078	-65.281402	-26.524081
51085		0.828951	-0.011291	-0.546074	-0.120483	15.632755	-65.238245	-26.581060
51086		0.829057	-0.011897	-0.545727	-0.121265	15.574692	-65.197962	-26.639544
51087		0.829167	-0.012477	-0.545385	-0.121989	15.514548	-65.158687	-26.688984
51088		0.829267	-0.013115	-0.545042	-0.122777	15.450848	-65.120003	-26.744968
51089		0.829362	-0.013701	-0.544722	-0.123484	15.389764	-65.084167	-26.792540
51090		0.829434	-0.014327	-0.544419	-0.124269	15.333189	-65.050409	-26.854377
51091		0.829497	-0.014894	-0.544145	-0.124980	15.281897	-65.019995	-26.910334
51092		0.829541	-0.015478	-0.543883	-0.125753	15.237238	-64.990658	-26.979547
51093		0.829587	-0.015992	-0.543644	-0.126419	15.195265	-64.964056	-27.036633
51094		0.829628	-0.016523	-0.543391	-0.127166	15.159372	-64.934799	-27.108068
51095		0.829672	-0.016993	-0.543160	-0.127798	15.122685	-64.908692	-27.164034
51096		0.829713	-0.017419	-0.542937	-0.128425	15.095673	-64.882228	-27.225451
51097		0.829760	-0.017825	-0.542712	-0.129016	15.067596	-64.855620	-27.281250
51098		0.829805	-0.018217	-0.542494	-0.129584	15.039973	-64.829972	-27.334420
51099		0.829856	-0.018579	-0.542275	-0.130125	15.014766	-64.803731	-27.385308
51100		0.829896	-0.018941	-0.542069	-0.130675	14.992533	-64.779044	-27.439771
51101		0.829934	-0.019298	-0.541881	-0.131158	14.963702	-64.757828	-27.481703
51102		0.829969	-0.019632	-0.541702	-0.131626	14.938799	-64.737110	-27.524339
51103		0.829977	-0.019911	-0.541571	-0.132070	14.927505	-64.721457	-27.573820
51104		0.829981	-0.020139	-0.541462	-0.132454	14.921205	-64.707968	-27.618965
51105		0.829973	-0.020326	-0.541380	-0.132811	14.922539	-64.697149	-27.666025
51106		0.829963	-0.020479	-0.541316	-0.133111	14.925157	-64.688486	-27.706708
51107		0.829933	-0.020583	-0.541294	-0.133373	14.937560	-64.684320	-27.749830
51108		0.829889	-0.020606	-0.541309	-0.133583	14.964005	-64.683251	-27.795765
51109		0.829831	-0.020579	-0.541362	-0.133731	14.996692	-64.686552	-27.838482
51110		0.829765	-0.020505	-0.541433	-0.133867	15.039690	-64.690769	-27.886538
51111		0.829715	-0.020413	-0.541489	-0.133960	15.078652	-64.693308	-27.925452
51112		0.829679	-0.020293	-0.541533	-0.134025	15.118067	-64.693872	-27.960331
51113		0.829642	-0.020153	-0.541587	-0.134056	15.158385	-64.695635	-27.991482
51114		0.829612	-0.019948	-0.541645	-0.134040	15.206085	-64.696736	-28.020665
51115		0.829578	-0.019758	-0.541710	-0.134019	15.250829	-64.699183	-28.047716
51116		0.829554	-0.019559	-0.541761	-0.133990	15.294686	-64.699749	-28.072456
51117		0.829518	-0.019288	-0.541848	-0.133900	15.349328	-64.703739	-28.096841
51118		0.829484	-0.018975	-0.541954	-0.133726	15.403211	-64.710243	-28.109871
51119		0.829447	-0.018673	-0.542062	-0.133559	15.456122	-64.717209	-28.123434
51120		0.829410	-0.018395	-0.542175	-0.133371	15.501341	-64.726053	-28.129598
51121		0.829346	-0.018131	-0.542332	-0.133162	15.546149	-64.741369	-28.134439
51122		0.829283	-0.017869	-0.542493	-0.132933	15.587772	-64.757621	-28.134693
51123		0.829226	-0.017603	-0.542647	-0.132700	15.629045	-64.772867	-28.133860
51124		0.829170	-0.017312	-0.542805	-0.132436	15.671898	-64.788523	-28.129987
51125		0.829097	-0.016986	-0.542998	-0.132148	15.722930	-64.807801	-28.129294
51126		0.829013	-0.016666	-0.543211	-0.131838	15.771912	-64.830372	-28.125067
51127		0.828932	-0.016334	-0.543422	-0.131520	15.822034	-64.852404	-28.120380
51128		0.828874	-0.016014	-0.543594	-0.131210	15.866127	-64.869846	-28.111547
51129		0.828832	-0.015681	-0.543746	-0.130888	15.908983	-64.884371	-28.099279
51130		0.828810	-0.015369	-0.543869	-0.130557	15.943030	-64.896138	-28.079399
51131		0.828822	-0.015091	-0.543929	-0.130260	15.967133	-64.900467	-28.055439
51132		0.828868	-0.014831	-0.543942	-0.129943	15.978862	-64.899634	-28.018987
51133		0.828938	-0.014570	-0.543922	-0.129611	15.985161	-64.894943	-27.975868
51134		0.828998	-0.014296	-0.543914	-0.129289	15.996799	-64.891301	-27.937862
51135		0.829065	-0.014060	-0.543890	-0.128987	16.001503	-64.886280	-27.897751
51136		0.829126	-0.013765	-0.543881	-0.128665	16.017669	-64.881723	-27.862509
51137		0.829147	-0.013503	-0.543932	-0.128337	16.033202	-64.886066	-27.828734
51138		0.829181	-0.013263	-0.543960	-0.128027	16.043542	-64.887723	-27.793115
51139		0.829245	-0.013037	-0.543937	-0.127732	16.047206	-64.883259	-27.753462
51140		0.829342	-0.012819	-0.543856	-0.127468	16.046891	-64.870957	-27.713205
51141		0.829422	-0.012657	-0.543798	-0.127207	16.037688	-64.863331	-27.668886
51142		0.829491	-0.012491	-0.543761	-0.126932	16.029870	-64.858559	-27.624344
51143		0.829553	-0.012386	-0.543728	-0.126682	16.012945	-64.855689	-27.577843
51144		0.829651	-0.012285	-0.543641	-0.126423	15.987980	-64.846253	-27.523023
51145		0.829728	-0.012201	-0.543581	-0.126182	15.964756	-64.840579	-27.472820
51146		0.829789	-0.012047	-0.543560	-0.125886	15.953442	-64.838577	-27.424060
51147		0.829837	-0.011973	-0.543544	-0.125651	15.934080	-64.838581	-27.378946
51148		0.829888	-0.012033	-0.543496	-0.125512	15.896027	-64.837037	-27.334269
51149		0.829926	-0.012089	-0.543481	-0.125322	15.855667	-64.840436	-27.282687
51150		0.829917	-0.012147	-0.543529	-0.125161	15.826053	-64.851539	-27.244257
51151		0.829934	-0.012165	-0.543547	-0.124976	15.798092	-64.857788	-27.202197
51152		0.829934	-0.012222	-0.543579	-0.124827	15.768506	-64.866557	-27.164697
51153		0.829912	-0.012244	-0.543648	-0.124670	15.749382	-64.879033	-27.134012
51154		0.829869	-0.012309	-0.543740	-0.124552	15.729049	-64.894991	-27.108972
51155		0.829849	-0.012356	-0.543801	-0.124409	15.705868	-64.907024	-27.077456
51156		0.829817	-0.012455	-0.543870	-0.124316	15.679327	-64.920682	-27.051084
51157		0.829797	-0.012529	-0.543920	-0.124226	15.656238	-64.930996	-27.026556
51158		0.829763	-0.012621	-0.543992	-0.124122	15.629915	-64.945088	-26.998859
51159		0.829744	-0.012710	-0.544034	-0.124055	15.606256	-64.954525	-26.976850
51160		0.829710	-0.012816	-0.544101	-0.123981	15.580551	-64.967762	-26.953561
51161		0.829670	-0.012920	-0.544178	-0.123901	15.555521	-64.982329	-26.930118
51162		0.829615	-0.013034	-0.544271	-0.123844	15.533679	-64.998940	-26.912709
51163		0.829566	-0.013143	-0.544358	-0.123784	15.511423	-65.014525	-26.894185
51164		0.829505	-0.013273	-0.544459	-0.123732	15.487638	-65.032565	-26.876520
51165		0.829449	-0.013408	-0.544554	-0.123675	15.461173	-65.050028	-26.856199
51166		0.829388	-0.013545	-0.544653	-0.123634	15.437073	-65.067621	-26.839674
51167		0.829349	-0.013698	-0.544717	-0.123598	15.406274	-65.081356	-26.818329
51168		0.829304	-0.013870	-0.544782	-0.123589	15.375308	-65.095247	-26.800620
51169		0.829250	-0.014033	-0.544864	-0.123578	15.347697	-65.110965	-26.785327
51170		0.829200	-0.014217	-0.544932	-0.123584	15.316820	-65.125384	-26.770006
51171		0.829156	-0.014388	-0.544997	-0.123575	15.285804	-65.139203	-26.752248
51172		0.829105	-0.014597	-0.545061	-0.123612	15.253291	-65.153230	-26.739844
51173		0.829046	-0.014796	-0.545140	-0.123638	15.222924	-65.169065	-26.727986
51174		0.828986	-0.015032	-0.545214	-0.123686	15.187399	-65.185019	-26.715735
51175		0.828925	-0.015239	-0.545291	-0.123732	15.157950	-65.200458	-26.707042
51176		0.828849	-0.015471	-0.545388	-0.123783	15.126092	-65.219284	-26.698370
51177		0.828760	-0.015694	-0.545503	-0.123839	15.098849	-65.239974	-26.693935
51178		0.828657	-0.015910	-0.545637	-0.123909	15.077335	-65.262704	-26.695731
51179		0.828560	-0.016121	-0.545765	-0.123974	15.055456	-65.284412	-26.696399
51180		0.828463	-0.016329	-0.545898	-0.124008	15.030461	-65.307474	-26.691032
51181		0.828357	-0.016495	-0.546046	-0.124041	15.015779	-65.330998	-26.692449
51182		0.828250	-0.016684	-0.546195	-0.124073	14.996409	-65.355517	-26.690927
51183		0.828137	-0.016849	-0.546354	-0.124106	14.983583	-65.380483	-26.694074
51184		0.828026	-0.017059	-0.546507	-0.124145	14.960773	-65.405956	-26.691464
51185		0.827928	-0.017284	-0.546638	-0.124189	14.933159	-65.429002	-26.685787
51186		0.827839	-0.017514	-0.546760	-0.124213	14.900235	-65.451525	-26.673515
51187		0.827766	-0.017724	-0.546854	-0.124255	14.871535	-65.469357	-26.665398
51188		0.827702	-0.017963	-0.546934	-0.124299	14.834745	-65.486279	-26.651831
51189		0.827654	-0.018132	-0.546997	-0.124317	14.807780	-65.499291	-26.640173
51190		0.827620	-0.018294	-0.547037	-0.124342	14.780518	-65.509075	-26.628323
51191		0.827588	-0.018442	-0.547082	-0.124337	14.752550	-65.519615	-26.611958
51192		0.827553	-0.018555	-0.547135	-0.124317	14.730866	-65.530193	-26.597788
51193		0.827519	-0.018654	-0.547193	-0.124275	14.709714	-65.541569	-26.581092
51194		0.827487	-0.018731	-0.547249	-0.124225	14.691873	-65.552044	-26.565301
51195		0.827461	-0.018789	-0.547305	-0.124149	14.674174	-65.562351	-26.545861
51196		0.827431	-0.018858	-0.547363	-0.124078	14.655325	-65.573209	-26.526657
51197		0.827402	-0.018885	-0.547429	-0.123976	14.641881	-65.584382	-26.506710
51198		0.827364	-0.018927	-0.547516	-0.123841	14.622463	-65.599235	-26.479257
51199		0.827327	-0.018928	-0.547600	-0.123718	14.613668	-65.612245	-26.459914
51200		0.827278	-0.018956	-0.547707	-0.123571	14.597731	-65.629433	-26.433699
51201		0.827239	-0.018967	-0.547802	-0.123403	14.581331	-65.645058	-26.403929
51202		0.827191	-0.018981	-0.547914	-0.123225	14.564552	-65.663063	-26.373027
51203		0.827142	-0.019005	-0.548027	-0.123046	14.545519	-65.681467	-26.340640
51204		0.827098	-0.019010	-0.548140	-0.122838	14.526414	-65.699799	-26.304196
51205		0.827044	-0.018981	-0.548275	-0.122607	14.513532	-65.720408	-26.269268
51206		0.826995	-0.018981	-0.548394	-0.122405	14.497069	-65.739281	-26.235559
51207		0.826931	-0.018980	-0.548539	-0.122185	14.481060	-65.761814	-26.200604
51208		0.826858	-0.018987	-0.548698	-0.121965	14.464415	-65.786302	-26.165738
51209		0.826782	-0.018992	-0.548865	-0.121730	14.447191	-65.812090	-26.128744
51210		0.826704	-0.019004	-0.549030	-0.121514	14.430844	-65.837554	-26.094840
51211		0.826629	-0.019005	-0.549192	-0.121291	14.415642	-65.862463	-26.060563
51212		0.826534	-0.019007	-0.549384	-0.121066	14.403141	-65.891258	-26.028894
51213		0.826468	-0.018988	-0.549533	-0.120843	14.390679	-65.913824	-25.995784
51214		0.826390	-0.018965	-0.549704	-0.120606	14.379264	-65.939265	-25.962174
51215		0.826329	-0.018942	-0.549846	-0.120378	14.366318	-65.960867	-25.927853
51216		0.826277	-0.018928	-0.549973	-0.120161	14.351094	-65.980653	-25.892932
51217		0.826241	-0.018931	-0.550069	-0.119965	14.331762	-65.996624	-25.857210
51218		0.826201	-0.018907	-0.550181	-0.119731	14.314403	-66.014437	-25.818037
51219		0.826161	-0.018876	-0.550286	-0.119530	14.302730	-66.030461	-25.786615
51220		0.826147	-0.018892	-0.550345	-0.119350	14.278586	-66.041769	-25.748687
51221		0.826133	-0.018916	-0.550401	-0.119183	14.254321	-66.052571	-25.712181
51222		0.826125	-0.018871	-0.550458	-0.118986	14.240966	-66.062019	-25.678504
51223		0.826114	-0.018844	-0.550514	-0.118809	14.226389	-66.071457	-25.646772
51224		0.826110	-0.018862	-0.550550	-0.118664	14.204396	-66.079114	-25.614053
51225		0.826092	-0.018890	-0.550602	-0.118544	14.185846	-66.088729	-25.587645
51226		0.826070	-0.018941	-0.550657	-0.118431	14.163643	-66.099352	-25.560042
51227		0.826055	-0.018982	-0.550701	-0.118326	14.143358	-66.108052	-25.534280
51228		0.826041	-0.018988	-0.550739	-0.118243	14.133550	-66.114648	-25.517915
51229		0.826025	-0.018963	-0.550788	-0.118134	14.128158	-66.122072	-25.501171
51230		0.826008	-0.018911	-0.550830	-0.118067	14.134291	-66.127019	-25.497378
51231		0.825986	-0.018862	-0.550878	-0.118004	14.140989	-66.132861	-25.494599
51232		0.825975	-0.018829	-0.550906	-0.117954	14.143988	-66.136411	-25.490598
51233		0.825983	-0.018792	-0.550902	-0.117927	14.147727	-66.135230	-25.489014
51234		0.826002	-0.018783	-0.550878	-0.117907	14.144026	-66.132171	-25.482983
51235		0.826028	-0.018788	-0.550836	-0.117916	14.139517	-66.126756	-25.479711
51236		0.826058	-0.018796	-0.550786	-0.117939	14.135586	-66.120058	-25.478505
51237		0.826075	-0.018814	-0.550761	-0.117935	14.128384	-66.117418	-25.472554
51238		0.826097	-0.018863	-0.550714	-0.117993	14.120930	-66.111773	-25.474119
51239		0.826125	-0.018889	-0.550662	-0.118036	14.115809	-66.105060	-25.474880
51240		0.826153	-0.018931	-0.550603	-0.118104	14.110077	-66.097558	-25.478425
51241		0.826179	-0.018975	-0.550550	-0.118166	14.103648	-66.090906	-25.480978
51242		0.826197	-0.019025	-0.550505	-0.118240	14.098766	-66.085360	-25.486507
51243		0.826220	-0.019087	-0.550451	-0.118321	14.091028	-66.078769	-25.490850
51244		0.826223	-0.019173	-0.550427	-0.118399	14.081174	-66.076966	-25.494693
51245		0.826231	-0.019245	-0.550389	-0.118505	14.076763	-66.072416	-25.505221
51246		0.826243	-0.019321	-0.550343	-0.118626	14.072904	-66.066585	-25.517801
51247		0.826246	-0.019416	-0.550309	-0.118747	14.066282	-66.063024	-25.529221
51248		0.826257	-0.019484	-0.550266	-0.118855	14.062631	-66.057624	-25.540397
51249		0.826270	-0.019559	-0.550219	-0.118976	14.058902	-66.051724	-25.553146
51250		0.826281	-0.019571	-0.550180	-0.119072	14.066485	-66.045469	-25.569840
51251		0.826276	-0.019515	-0.550184	-0.119103	14.083926	-66.043721	-25.585262
51252		0.826278	-0.019577	-0.550146	-0.119254	14.088959	-66.038107	-25.608094
51253		0.826281	-0.019685	-0.550106	-0.119398	14.081908	-66.033693	-25.622173
51254		0.826268	-0.019773	-0.550102	-0.119489	14.075621	-66.034386	-25.630755
51255		0.826227	-0.019856	-0.550137	-0.119599	14.077655	-66.039441	-25.648686
51256		0.826205	-0.019934	-0.550139	-0.119729	14.080222	-66.039948	-25.668632
51257		0.826194	-0.020011	-0.550124	-0.119864	14.081880	-66.037977	-25.687948
51258		0.826161	-0.020070	-0.550142	-0.119993	14.090102	-66.039922	-25.711784
51259		0.826145	-0.020133	-0.550136	-0.120121	14.094733	-66.038907	-25.732399
51260		0.826124	-0.020184	-0.550140	-0.120242	14.102166	-66.038915	-25.754118
51261		0.826121	-0.020234	-0.550115	-0.120366	14.106910	-66.035032	-25.773407
51262		0.826107	-0.020281	-0.550111	-0.120476	14.112673	-66.034057	-25.792295
51263		0.826098	-0.020301	-0.550099	-0.120590	14.124254	-66.031155	-25.815073
51264		0.826086	-0.020312	-0.550092	-0.120698	14.137174	-66.028763	-25.837922
51265		0.826070	-0.020350	-0.550092	-0.120804	14.144593	-66.028159	-25.857387
51266		0.826063	-0.020381	-0.550079	-0.120902	14.151107	-66.025746	-25.874738
51267		0.826062	-0.020417	-0.550059	-0.120995	14.154975	-66.022676	-25.889344
51268		0.826061	-0.020452	-0.550035	-0.121102	14.160751	-66.018822	-25.907034
51269		0.826077	-0.020480	-0.549991	-0.121194	14.163228	-66.012407	-25.919647
51270		0.826104	-0.020511	-0.549933	-0.121268	14.161075	-66.004546	-25.926495
51271		0.826135	-0.020508	-0.549870	-0.121336	14.164958	-65.995195	-25.935981
51272		0.826167	-0.020505	-0.549808	-0.121403	14.168604	-65.985877	-25.945090
51273		0.826205	-0.020487	-0.549737	-0.121467	14.174458	-65.975106	-25.954989
51274		0.826238	-0.020462	-0.549673	-0.121534	14.182891	-65.964931	-25.967258
51275		0.826281	-0.020418	-0.549596	-0.121604	14.194351	-65.952335	-25.981075
51276		0.826323	-0.020371	-0.549515	-0.121692	14.209042	-65.938987	-25.999510
51277		0.826389	-0.020333	-0.549402	-0.121758	14.214840	-65.922054	-26.008021
51278		0.826447	-0.020248	-0.549307	-0.121812	14.231095	-65.906193	-26.021978
51279		0.826508	-0.020196	-0.549203	-0.121872	14.239838	-65.890211	-26.031759
51280		0.826574	-0.020110	-0.549092	-0.121938	14.256324	-65.872057	-26.046990
51281		0.826638	-0.020016	-0.548985	-0.122000	14.274478	-65.854274	-26.062814
51282		0.826705	-0.019913	-0.548876	-0.122056	14.293478	-65.836108	-26.078290
51283		0.826767	-0.019815	-0.548777	-0.122094	14.309662	-65.819634	-26.089888
51284		0.826811	-0.019710	-0.548700	-0.122160	14.334071	-65.805332	-26.111436
51285		0.826865	-0.019621	-0.548614	-0.122199	14.349734	-65.790754	-26.123231
51286		0.826923	-0.019552	-0.548511	-0.122278	14.365356	-65.774068	-26.139943
51287		0.826977	-0.019477	-0.548418	-0.122339	14.380541	-65.758632	-26.154347
51288		0.827038	-0.019394	-0.548314	-0.122408	14.397270	-65.741458	-26.170395
51289		0.827099	-0.019311	-0.548209	-0.122478	14.414148	-65.724174	-26.186473
51290		0.827162	-0.019227	-0.548103	-0.122537	14.429585	-65.706932	-26.200276
51291		0.827218	-0.019149	-0.548005	-0.122610	14.446810	-65.690618	-26.217413
51292		0.827280	-0.019070	-0.547904	-0.122661	14.460047	-65.674284	-26.228681
51293		0.827326	-0.018980	-0.547829	-0.122700	14.477434	-65.661150	-26.242065
51294		0.827372	-0.018905	-0.547748	-0.122763	14.494137	-65.647253	-26.258075
51295		0.827426	-0.018823	-0.547658	-0.122813	14.509392	-65.632249	-26.270986
51296		0.827479	-0.018744	-0.547573	-0.122848	14.522438	-65.618242	-26.280731
51297		0.827523	-0.018674	-0.547500	-0.122887	14.535087	-65.606013	-26.291055
51298		0.827571	-0.018621	-0.547422	-0.122917	14.542488	-65.593781	-26.296849
51299		0.827628	-0.018560	-0.547331	-0.122950	14.550520	-65.579599	-26.302795
51300		0.827672	-0.018530	-0.547256	-0.122989	14.554485	-65.568355	-26.307853
51301		0.827734	-0.018489	-0.547152	-0.123040	14.559323	-65.552802	-26.313817
51302		0.827790	-0.018454	-0.547067	-0.123053	14.559113	-65.540467	-26.312040
51303		0.827869	-0.018448	-0.546939	-0.123084	14.550729	-65.523310	-26.306124
51304		0.827951	-0.018411	-0.546810	-0.123116	14.549176	-65.504900	-26.304566
51305		0.828040	-0.018388	-0.546672	-0.123127	14.540258	-65.486241	-26.295127
51306		0.828138	-0.018356	-0.546519	-0.123159	14.534906	-65.464935	-26.290232
51307		0.828258	-0.018327	-0.546330	-0.123187	14.524239	-65.439235	-26.280069
51308		0.828384	-0.018305	-0.546136	-0.123210	14.510710	-65.413113	-26.267200
51309		0.828521	-0.018290	-0.545924	-0.123228	14.492825	-65.384950	-26.250174
51310		0.828693	-0.018274	-0.545663	-0.123235	14.468517	-65.350674	-26.225878
51311		0.828891	-0.018218	-0.545362	-0.123240	14.448154	-65.310148	-26.202228
51312		0.829110	-0.018151	-0.545038	-0.123211	14.422777	-65.266700	-26.169789
51313		0.829387	-0.018061	-0.544628	-0.123174	14.391849	-65.211735	-26.129510
51314		0.829715	-0.017981	-0.544141	-0.123130	14.349518	-65.147304	-26.078270
51315		0.830104	-0.017885	-0.543563	-0.123073	14.299151	-65.070829	-26.016819
51316		0.830561	-0.017801	-0.542887	-0.122981	14.230890	-64.982803	-25.935956
51317		0.831068	-0.017690	-0.542140	-0.122867	14.158379	-64.885113	-25.846868
51318		0.831603	-0.017578	-0.541348	-0.122757	14.082743	-64.781462	-25.755070
51319		0.832158	-0.017431	-0.540534	-0.122606	14.006954	-64.674643	-25.656840
51320		0.832728	-0.017291	-0.539686	-0.122493	13.932556	-64.563122	-25.563931
51321		0.833323	-0.017095	-0.538815	-0.122306	13.857827	-64.448191	-25.459886
51322		0.833951	-0.016947	-0.537873	-0.122191	13.776779	-64.324360	-25.359694
51323		0.834638	-0.016784	-0.536850	-0.122024	13.684529	-64.190502	-25.242919
51324		0.835345	-0.016712	-0.535772	-0.121933	13.579082	-64.051027	-25.127104
51325		0.836104	-0.016566	-0.534622	-0.121804	13.478119	-63.900804	-25.006691
51326		0.836875	-0.016428	-0.533438	-0.121714	13.379200	-63.745926	-24.892315
51327		0.837661	-0.016306	-0.532227	-0.121623	13.275299	-63.587921	-24.774339
51328		0.838450	-0.016234	-0.530991	-0.121601	13.169205	-63.427182	-24.664216
51329		0.839225	-0.015985	-0.529810	-0.121439	13.087753	-63.270761	-24.552116
51330		0.839956	-0.015753	-0.528681	-0.121332	13.016334	-63.120715	-24.455838
51331		0.840724	-0.015564	-0.527491	-0.121219	12.930522	-62.964090	-24.348481
51332		0.841465	-0.015406	-0.526322	-0.121179	12.851073	-62.810138	-24.256126
51333		0.842215	-0.015176	-0.525150	-0.121086	12.779998	-62.654503	-24.161814
51334		0.842955	-0.014980	-0.523980	-0.121027	12.708007	-62.499822	-24.072223
51335		0.843764	-0.014689	-0.522707	-0.120924	12.641378	-62.329942	-23.976652
51336		0.844595	-0.014433	-0.521377	-0.120905	12.574246	-62.152479	-23.890840
51337		0.845426	-0.014088	-0.520060	-0.120808	12.517479	-61.975626	-23.801321
51338		0.846240	-0.013772	-0.518747	-0.120787	12.465914	-61.799157	-23.725790
51339		0.847104	-0.013420	-0.517367	-0.120690	12.407330	-61.614158	-23.634184
51340		0.847986	-0.013129	-0.515934	-0.120665	12.342308	-61.423287	-23.547320
51341		0.848925	-0.012802	-0.514409	-0.120604	12.273521	-61.220380	-23.450992
51342		0.849935	-0.012614	-0.512734	-0.120644	12.178720	-61.000580	-23.349292
51343		0.850918	-0.012322	-0.511121	-0.120589	12.099590	-60.787549	-23.246440
51344		0.851892	-0.012035	-0.509506	-0.120579	12.026133	-60.573950	-23.153418
51345		0.852878	-0.011725	-0.507881	-0.120489	11.948493	-60.359722	-23.047573
51346		0.853827	-0.011492	-0.506281	-0.120528	11.874036	-60.148975	-22.962212
51347		0.854780	-0.011201	-0.504678	-0.120526	11.807369	-59.937203	-22.876345
51348		0.855741	-0.010965	-0.503035	-0.120595	11.736216	-59.720973	-22.796753
51349		0.856582	-0.010561	-0.501625	-0.120534	11.700967	-59.531852	-22.727283
51350		0.857386	-0.010206	-0.500251	-0.120559	11.669193	-59.347771	-22.672496
51351		0.858145	-0.009849	-0.498965	-0.120515	11.637547	-59.175681	-22.611545
51352		0.858835	-0.009490	-0.497782	-0.120523	11.619837	-59.016104	-22.568417
51353		0.859490	-0.009125	-0.496669	-0.120475	11.602382	-58.866252	-22.520051
51354		0.860071	-0.008803	-0.495665	-0.120485	11.591559	-58.730500	-22.486494
51355		0.860646	-0.008501	-0.494682	-0.120443	11.573287	-58.598703	-22.442691
51356		0.861199	-0.008309	-0.493707	-0.120498	11.545984	-58.469638	-22.407246
51357		0.861739	-0.008036	-0.492779	-0.120457	11.526804	-58.345731	-22.364777
51358		0.862231	-0.007852	-0.491913	-0.120487	11.503562	-58.230984	-22.331616
51359		0.862711	-0.007675	-0.491078	-0.120468	11.476150	-58.121176	-22.290644
51360		0.863142	-0.007606	-0.490304	-0.120541	11.443269	-58.020541	-22.260799
51361		0.863570	-0.007563	-0.489545	-0.120558	11.400938	-57.923226	-22.218905
51362		0.863937	-0.007588	-0.488875	-0.120649	11.360206	-57.837956	-22.190287
51363		0.864286	-0.007541	-0.488252	-0.120679	11.329631	-57.757600	-22.160555
51364		0.864597	-0.007544	-0.487685	-0.120739	11.297026	-57.685198	-22.135270
51365		0.864902	-0.007573	-0.487127	-0.120812	11.261779	-57.614484	-22.110537
51366		0.865164	-0.007593	-0.486640	-0.120894	11.234071	-57.552426	-22.093161
51367		0.865419	-0.007645	-0.486159	-0.120999	11.203358	-57.491645	-22.077552
51368		0.865646	-0.007710	-0.485724	-0.121123	11.175354	-57.436641	-22.066992
51369		0.865844	-0.007781	-0.485339	-0.121241	11.149050	-57.388406	-22.058121
51370		0.866019	-0.007899	-0.484991	-0.121374	11.118404	-57.345663	-22.049934
51371		0.866173	-0.008018	-0.484686	-0.121489	11.088509	-57.308668	-22.040960
51372		0.866297	-0.008097	-0.484436	-0.121597	11.068812	-57.277595	-22.037953
51373		0.866408	-0.008246	-0.484200	-0.121732	11.040386	-57.249874	-22.034441
51374		0.866510	-0.008401	-0.483986	-0.121846	11.009909	-57.225255	-22.027523
51375		0.866586	-0.008556	-0.483815	-0.121979	10.984242	-57.205819	-22.026792
51376		0.866633	-0.008710	-0.483695	-0.122106	10.961821	-57.192959	-22.028546
51377		0.866657	-0.008886	-0.483621	-0.122215	10.936275	-57.186598	-22.027406
51378		0.866661	-0.009059	-0.483583	-0.122329	10.914310	-57.184606	-22.029803
51379		0.866647	-0.009246	-0.483578	-0.122431	10.890715	-57.187386	-22.030694
51380		0.866616	-0.009428	-0.483596	-0.122564	10.872710	-57.192483	-22.039325
51381		0.866581	-0.009607	-0.483634	-0.122649	10.851564	-57.200724	-22.040313
51382		0.866547	-0.009780	-0.483665	-0.122756	10.833449	-57.207499	-22.045753
51383		0.866535	-0.009935	-0.483657	-0.122859	10.815583	-57.209149	-22.049727
51384		0.866517	-0.010088	-0.483661	-0.122955	10.797979	-57.212248	-22.053241
51385		0.866502	-0.010230	-0.483662	-0.123044	10.781594	-57.214788	-22.056304
51386		0.866483	-0.010359	-0.483673	-0.123126	10.767380	-57.218398	-22.059948
51387		0.866454	-0.010491	-0.483701	-0.123206	10.753793	-57.224190	-22.064177
51388		0.866428	-0.010619	-0.483735	-0.123247	10.737120	-57.231113	-22.061644
51389		0.866405	-0.010742	-0.483762	-0.123292	10.721345	-57.237073	-22.059904
51390		0.866383	-0.010862	-0.483797	-0.123305	10.703309	-57.244242	-22.052978
51391		0.866360	-0.010950	-0.483829	-0.123327	10.692003	-57.250247	-22.050828
51392		0.866331	-0.011051	-0.483878	-0.123331	10.677433	-57.258860	-22.044895
51393		0.866307	-0.011146	-0.483919	-0.123330	10.662931	-57.266430	-22.038177
51394		0.866290	-0.011250	-0.483946	-0.123339	10.646714	-57.272274	-22.031395
51395		0.866274	-0.011340	-0.483977	-0.123316	10.630450	-57.278741	-22.020648
51396		0.866266	-0.011435	-0.483990	-0.123315	10.614070	-57.282699	-22.012116
51397		0.866257	-0.011512	-0.484006	-0.123312	10.600914	-57.286659	-22.005057
51398		0.866251	-0.011603	-0.484012	-0.123314	10.585284	-57.289756	-21.997234
51399		0.866251	-0.011670	-0.484014	-0.123300	10.571968	-57.291831	-21.988434
51400		0.866251	-0.011734	-0.484013	-0.123298	10.560099	-57.293220	-21.981812
51401		0.866265	-0.011787	-0.483994	-0.123271	10.546550	-57.292466	-21.970409
51402		0.866272	-0.011846	-0.483983	-0.123256	10.533755	-57.292830	-21.961352
51403		0.866278	-0.011887	-0.483977	-0.123238	10.524197	-57.293200	-21.953768
51404		0.866275	-0.011928	-0.483984	-0.123230	10.516553	-57.295170	-21.948854
51405		0.866281	-0.011965	-0.483973	-0.123224	10.508594	-57.294759	-21.943555
51406		0.866282	-0.011998	-0.483980	-0.123189	10.499587	-57.296967	-21.934249
51407		0.866280	-0.012037	-0.483985	-0.123173	10.491260	-57.298760	-21.927863
51408		0.866284	-0.012065	-0.483987	-0.123141	10.483013	-57.300103	-21.919259
51409		0.866286	-0.012072	-0.483988	-0.123118	10.479606	-57.300678	-21.914427
51410		0.866280	-0.012099	-0.484003	-0.123096	10.473421	-57.303520	-21.908588
51411		0.866274	-0.012115	-0.484018	-0.123082	10.470164	-57.305980	-21.905485
51412		0.866270	-0.012128	-0.484039	-0.123029	10.463778	-57.309551	-21.895594
51413		0.866253	-0.012108	-0.484084	-0.122969	10.464181	-57.315522	-21.889046
51414		0.866237	-0.012117	-0.484117	-0.122954	10.463138	-57.319980	-21.887364
51415		0.866213	-0.012099	-0.484167	-0.122927	10.466895	-57.326279	-21.887122
51416		0.866179	-0.012074	-0.484235	-0.122899	10.472872	-57.334576	-21.888300
51417		0.866155	-0.012056	-0.484286	-0.122872	10.476631	-57.340876	-21.888058
51418		0.866119	-0.012031	-0.484355	-0.122851	10.483457	-57.349255	-21.890803
51419		0.866087	-0.011984	-0.484421	-0.122824	10.493454	-57.356708	-21.894189
51420		0.866048	-0.011960	-0.484492	-0.122820	10.501957	-57.365250	-21.900108
51421		0.866006	-0.011908	-0.484568	-0.122822	10.516482	-57.373512	-21.910148
51422		0.865965	-0.011867	-0.484644	-0.122815	10.528078	-57.382163	-21.917460
51423		0.865925	-0.011839	-0.484712	-0.122832	10.539215	-57.389918	-21.927372
51424		0.865875	-0.011814	-0.484799	-0.122846	10.550661	-57.400050	-21.937664
51425		0.865821	-0.011815	-0.484881	-0.122899	10.561410	-57.409829	-21.952677
51426		0.865766	-0.011820	-0.484968	-0.122941	10.570391	-57.420473	-21.965278
51427		0.865698	-0.011806	-0.485075	-0.123006	10.586402	-57.432803	-21.985341
51428		0.865611	-0.011771	-0.485229	-0.123014	10.603627	-57.451314	-21.999726
51429		0.865515	-0.011733	-0.485385	-0.123076	10.626882	-57.469364	-22.024447
51430		0.865400	-0.011747	-0.485571	-0.123147	10.643693	-57.492331	-22.047823
51431		0.865289	-0.011795	-0.485748	-0.123223	10.654524	-57.515004	-22.068558
51432		0.865179	-0.011840	-0.485922	-0.123312	10.666815	-57.536986	-22.091494
51433		0.865055	-0.011888	-0.486115	-0.123415	10.681486	-57.561326	-22.118229
51434		0.864922	-0.011949	-0.486325	-0.123507	10.693724	-57.588356	-22.142757
51435		0.864790	-0.012010	-0.486535	-0.123600	10.706164	-57.615286	-22.167400
51436		0.864652	-0.012072	-0.486750	-0.123717	10.721020	-57.642541	-22.196687
51437		0.864535	-0.012097	-0.486937	-0.123796	10.737122	-57.665878	-22.220869
51438		0.864422	-0.012117	-0.487107	-0.123913	10.756751	-57.686467	-22.251536
51439		0.864309	-0.012116	-0.487287	-0.123995	10.777543	-57.708173	-22.278598
51440		0.864207	-0.012115	-0.487442	-0.124095	10.798136	-57.726411	-22.307032
51441		0.864111	-0.012127	-0.487586	-0.124200	10.816595	-57.743595	-22.334900
51442		0.864022	-0.012137	-0.487714	-0.124315	10.835259	-57.758660	-22.363758
51443		0.863938	-0.012169	-0.487832	-0.124429	10.848980	-57.772972	-22.389396
51444		0.863863	-0.012208	-0.487931	-0.124563	10.862572	-57.784775	-22.417313
51445		0.863786	-0.012259	-0.488034	-0.124686	10.872806	-57.797643	-22.441933
51446		0.863702	-0.012311	-0.488150	-0.124809	10.884138	-57.812025	-22.467698
51447		0.863628	-0.012347	-0.488247	-0.124936	10.897100	-57.823642	-22.494114
51448		0.863548	-0.012387	-0.488359	-0.125043	10.908681	-57.837481	-22.517784
51449		0.863477	-0.012416	-0.488458	-0.125150	10.921127	-57.849419	-22.541384
51450		0.863407	-0.012478	-0.488558	-0.125239	10.925875	-57.862446	-22.558481
51451		0.863340	-0.012541	-0.488648	-0.125342	10.931255	-57.874118	-22.577675
51452		0.863282	-0.012613	-0.488722	-0.125447	10.934038	-57.884001	-22.595181
51453		0.863220	-0.012679	-0.488801	-0.125557	10.939018	-57.894330	-22.614746
51454		0.863164	-0.012747	-0.488869	-0.125666	10.942547	-57.903333	-22.632994
51455		0.863126	-0.012827	-0.488912	-0.125754	10.940039	-57.909623	-22.644601
51456		0.863101	-0.012866	-0.488937	-0.125825	10.942132	-57.912884	-22.655884
51457		0.863077	-0.012819	-0.488979	-0.125831	10.954026	-57.916899	-22.664124
51458		0.863053	-0.012798	-0.489015	-0.125858	10.963166	-57.920599	-22.673712
51459		0.863044	-0.012853	-0.489018	-0.125898	10.957564	-57.921933	-22.676112
51460		0.863032	-0.012917	-0.489032	-0.125923	10.949394	-57.925016	-22.675375
51461		0.863031	-0.012974	-0.489034	-0.125918	10.938712	-57.926826	-22.669077
51462		0.863035	-0.013006	-0.489039	-0.125866	10.927834	-57.928902	-22.656400
51463		0.863030	-0.013001	-0.489063	-0.125810	10.924642	-57.932496	-22.647961
51464		0.863012	-0.013003	-0.489111	-0.125749	10.921046	-57.939347	-22.639152
51465		0.862982	-0.013001	-0.489180	-0.125683	10.919298	-57.948867	-22.631392
51466		0.862953	-0.013028	-0.489246	-0.125619	10.912308	-57.958773	-22.620984
51467		0.862928	-0.013039	-0.489306	-0.125560	10.908196	-57.967334	-22.612509
51468		0.862900	-0.013045	-0.489371	-0.125497	10.905070	-57.976476	-22.604306
51469		0.862869	-0.013075	-0.489443	-0.125431	10.897478	-57.987158	-22.593322
51470		0.862849	-0.013099	-0.489492	-0.125369	10.889956	-57.994791	-22.582445
51471		0.862818	-0.013126	-0.489559	-0.125314	10.883985	-58.004685	-22.573766
51472		0.862790	-0.013142	-0.489625	-0.125251	10.878923	-58.014223	-22.564431
51473		0.862760	-0.013158	-0.489692	-0.125196	10.874889	-58.023731	-22.556813
51474		0.862727	-0.013185	-0.489761	-0.125148	10.869615	-58.033791	-22.549491
51475		0.862696	-0.013190	-0.489828	-0.125102	10.868388	-58.042992	-22.544539
51476		0.862663	-0.013218	-0.489898	-0.125054	10.863122	-58.053079	-22.537268
51477		0.862634	-0.013219	-0.489959	-0.125012	10.862658	-58.061415	-22.533030
51478		0.862594	-0.013239	-0.490044	-0.124956	10.858934	-58.073347	-22.525951
51479		0.862563	-0.013234	-0.490110	-0.124910	10.859646	-58.082163	-22.522062
51480		0.862535	-0.013253	-0.490168	-0.124871	10.855855	-58.090509	-22.516350
51481		0.862509	-0.013261	-0.490225	-0.124831	10.854205	-58.098366	-22.511750
51482		0.862481	-0.013280	-0.490283	-0.124791	10.850431	-58.106723	-22.505999
51483		0.862454	-0.013299	-0.490340	-0.124751	10.846827	-58.114965	-22.500318
51484		0.862429	-0.013307	-0.490396	-0.124704	10.844126	-58.122864	-22.494065
51485		0.862406	-0.013331	-0.490448	-0.124658	10.838466	-58.130546	-22.486420
51486		0.862366	-0.013336	-0.490539	-0.124577	10.835386	-58.143237	-22.476423
51487		0.862326	-0.013311	-0.490621	-0.124530	10.840497	-58.153579	-22.475186
51488		0.862279	-0.013310	-0.490720	-0.124463	10.840334	-58.166942	-22.468885
51489		0.862234	-0.013299	-0.490817	-0.124397	10.842255	-58.179804	-22.463866
51490		0.862195	-0.013271	-0.490906	-0.124318	10.844996	-58.191354	-22.457221
51491		0.862164	-0.013252	-0.490979	-0.124249	10.846303	-58.200979	-22.450803
51492		0.862113	-0.013228	-0.491087	-0.124177	10.850395	-58.214896	-22.446347
51493		0.862087	-0.013218	-0.491146	-0.124126	10.850984	-58.222774	-22.441549
51494		0.862057	-0.013193	-0.491222	-0.124039	10.851501	-58.232830	-22.432296
51495		0.862038	-0.013174	-0.491268	-0.123987	10.852760	-58.238897	-22.427338
51496		0.862024	-0.013158	-0.491305	-0.123942	10.853406	-58.243722	-22.422755
51497		0.862010	-0.013162	-0.491342	-0.123888	10.849467	-58.249131	-22.414391
51498		0.862011	-0.013160	-0.491354	-0.123831	10.844720	-58.251411	-22.404618
51499		0.862003	-0.013173	-0.491377	-0.123795	10.840066	-58.255070	-22.397877
51500		0.861998	-0.013175	-0.491398	-0.123750	10.836333	-58.258359	-22.390380
51501		0.862005	-0.013177	-0.491392	-0.123722	10.832720	-58.257992	-22.384583
51502		0.862000	-0.013186	-0.491410	-0.123689	10.828663	-58.260889	-22.378449
51503		0.861993	-0.013195	-0.491428	-0.123664	10.825657	-58.263762	-22.374042
51504		0.861989	-0.013197	-0.491437	-0.123655	10.824891	-58.265073	-22.372582
51505		0.861981	-0.013203	-0.491453	-0.123650	10.824414	-58.267240	-22.372124
51506		0.861972	-0.013211	-0.491469	-0.123647	10.823708	-58.269515	-22.371789
51507		0.861967	-0.013219	-0.491475	-0.123657	10.823704	-58.270414	-22.373316
51508		0.861948	-0.013229	-0.491498	-0.123694	10.827446	-58.273117	-22.380924
51509		0.861938	-0.013256	-0.491505	-0.123732	10.826936	-58.274159	-22.385845
51510		0.861930	-0.013292	-0.491511	-0.123758	10.823463	-58.275592	-22.387670
51511		0.861934	-0.013301	-0.491494	-0.123801	10.825180	-58.273090	-22.393895
51512		0.861925	-0.013318	-0.491500	-0.123838	10.826465	-58.273838	-22.399668
51513		0.861921	-0.013325	-0.491495	-0.123883	10.829464	-58.272764	-22.407130
51514		0.861908	-0.013336	-0.491507	-0.123926	10.832799	-58.274091	-22.414988
51515		0.861899	-0.013342	-0.491512	-0.123964	10.836204	-58.274365	-22.422076
51516		0.861882	-0.013378	-0.491521	-0.124045	10.838759	-58.275434	-22.434451
51517		0.861883	-0.013441	-0.491508	-0.124086	10.830686	-58.274855	-22.435256
51518		0.861873	-0.013484	-0.491502	-0.124175	10.831688	-58.274085	-22.447444
51519		0.861866	-0.013531	-0.491497	-0.124238	10.829388	-58.273844	-22.454519
51520		0.861859	-0.013549	-0.491495	-0.124289	10.831222	-58.273373	-22.462167
51521		0.861842	-0.013560	-0.491509	-0.124348	10.836485	-58.274754	-22.473358
51522		0.861820	-0.013577	-0.491532	-0.124412	10.841685	-58.277196	-22.485341
51523		0.861803	-0.013620	-0.491547	-0.124462	10.840200	-58.279651	-22.491672
51524		0.861792	-0.013644	-0.491552	-0.124519	10.842085	-58.280107	-22.500323
51525		0.861776	-0.013683	-0.491563	-0.124581	10.842254	-58.281777	-22.508993
51526		0.861752	-0.013710	-0.491587	-0.124651	10.846383	-58.284652	-22.521290
51527		0.861739	-0.013791	-0.491587	-0.124730	10.839969	-58.285731	-22.528335
51528		0.861702	-0.013836	-0.491635	-0.124795	10.841862	-58.292146	-22.539369
51529		0.861678	-0.013866	-0.491662	-0.124847	10.843624	-58.295645	-22.548024
51530		0.861647	-0.013900	-0.491706	-0.124889	10.844883	-58.301511	-22.555545
51531		0.861610	-0.013959	-0.491757	-0.124935	10.842472	-58.308942	-22.561820
51532		0.861568	-0.014007	-0.491819	-0.124976	10.842238	-58.317463	-22.568864
51533		0.861526	-0.014046	-0.491883	-0.125005	10.842500	-58.326257	-22.574600
51534		0.861492	-0.014087	-0.491936	-0.125030	10.841277	-58.333678	-22.578757
51535		0.861457	-0.014107	-0.491988	-0.125066	10.845051	-58.340352	-22.587036
51536		0.861423	-0.014101	-0.492041	-0.125085	10.851928	-58.346702	-22.594903
51537		0.861392	-0.014081	-0.492093	-0.125103	10.861009	-58.352537	-22.603577
51538		0.861356	-0.014077	-0.492152	-0.125116	10.867141	-58.359702	-22.610316
51539		0.861327	-0.014057	-0.492202	-0.125125	10.875347	-58.365457	-22.617382
51540		0.861294	-0.014063	-0.492248	-0.125165	10.881676	-58.370982	-22.627405
51541		0.861276	-0.014082	-0.492282	-0.125158	10.879762	-58.375828	-22.626383
51542		0.861257	-0.014084	-0.492309	-0.125183	10.883841	-58.378943	-22.632774
51543		0.861233	-0.014087	-0.492349	-0.125190	10.886840	-58.384043	-22.636426
51544		0.861208	-0.014084	-0.492393	-0.125185	10.889928	-58.389610	-22.638595
51545		0.861185	-0.014076	-0.492432	-0.125192	10.894890	-58.394323	-22.643337
51546		0.861166	-0.014064	-0.492465	-0.125194	10.899524	-58.398166	-22.647070
51547		0.861142	-0.014056	-0.492505	-0.125201	10.904488	-58.402880	-22.651814
51548		0.861126	-0.014039	-0.492532	-0.125205	10.909961	-58.405880	-22.656097
51549		0.861100	-0.014011	-0.492584	-0.125186	10.916719	-58.411874	-22.658691
51550		0.861090	-0.013993	-0.492597	-0.125210	10.923431	-58.412762	-22.665877
51551		0.861076	-0.013982	-0.492619	-0.125219	10.927879	-58.415180	-22.670107
51552		0.861059	-0.013975	-0.492643	-0.125238	10.932967	-58.417785	-22.676111
51553		0.861048	-0.013977	-0.492657	-0.125261	10.935927	-58.419322	-22.681238
51554		0.861031	-0.013980	-0.492681	-0.125280	10.939079	-58.422320	-22.686068
51555		0.861007	-0.013997	-0.492715	-0.125309	10.941485	-58.426618	-22.692243
51556		0.860997	-0.013972	-0.492731	-0.125322	10.948472	-58.427878	-22.698165
51557		0.860983	-0.013937	-0.492759	-0.125308	10.955491	-58.430709	-22.700974
51558		0.860952	-0.013849	-0.492826	-0.125267	10.971864	-58.437477	-22.706234
51559		0.860928	-0.013859	-0.492863	-0.125285	10.974578	-58.442175	-22.711159
51560		0.860894	-0.013890	-0.492915	-0.125312	10.975339	-58.449251	-22.716687
51561		0.860862	-0.013895	-0.492972	-0.125309	10.977996	-58.456566	-22.719262
51562		0.860822	-0.013905	-0.493045	-0.125297	10.980086	-58.466245	-22.720931
51563		0.860787	-0.013932	-0.493104	-0.125301	10.979705	-58.474414	-22.722945
51564		0.860750	-0.013923	-0.493167	-0.125305	10.986175	-58.482031	-22.728777
51565		0.860715	-0.013950	-0.493226	-0.125310	10.985796	-58.490201	-22.730793
51566		0.860671	-0.013951	-0.493305	-0.125299	10.990011	-58.500394	-22.733911
51567		0.860629	-0.013976	-0.493376	-0.125305	10.990935	-58.509992	-22.737180
51568		0.860588	-0.013991	-0.493447	-0.125308	10.993656	-58.519290	-22.741138
51569		0.860541	-0.014021	-0.493525	-0.125319	10.994697	-58.529836	-22.745299
51570		0.860487	-0.014052	-0.493616	-0.125332	10.996764	-58.541887	-22.750809
51571		0.860436	-0.014069	-0.493703	-0.125337	11.000190	-58.553394	-22.755698
51572		0.860383	-0.014100	-0.493793	-0.125343	11.001411	-58.565427	-22.759775
51573		0.860337	-0.014126	-0.493866	-0.125365	11.004128	-58.575187	-22.766293
51574		0.860290	-0.014159	-0.493949	-0.125360	11.003360	-58.586607	-22.767533
51575		0.860239	-0.014190	-0.494030	-0.125387	11.006195	-58.597314	-22.774946
51576		0.860197	-0.014229	-0.494095	-0.125413	11.006422	-58.606262	-22.780371
51577		0.860149	-0.014287	-0.494172	-0.125434	11.003239	-58.617187	-22.783608
51578		0.860095	-0.014342	-0.494256	-0.125469	11.002805	-58.628860	-22.790471
51579		0.860038	-0.014406	-0.494342	-0.125511	11.001527	-58.640894	-22.797846
51580		0.859973	-0.014457	-0.494447	-0.125533	11.001934	-58.655266	-22.803953
51581		0.859910	-0.014513	-0.494549	-0.125565	11.002269	-58.669130	-22.811329
51582		0.859865	-0.014561	-0.494616	-0.125597	11.001452	-58.678521	-22.817010
51583		0.859805	-0.014609	-0.494707	-0.125644	11.004246	-58.690729	-22.827481
51584		0.859754	-0.014669	-0.494786	-0.125674	11.001816	-58.701917	-22.832405
51585		0.859705	-0.014742	-0.494857	-0.125726	10.998943	-58.712128	-22.839787
51586		0.859661	-0.014821	-0.494921	-0.125763	10.992864	-58.721758	-22.843181
51587		0.859616	-0.014907	-0.494982	-0.125821	10.987604	-58.731011	-22.849828
51588		0.859580	-0.014995	-0.495034	-0.125851	10.978288	-58.739568	-22.850266
51589		0.859526	-0.015068	-0.495108	-0.125919	10.977214	-58.749942	-22.860901
51590		0.859477	-0.015153	-0.495172	-0.125989	10.973590	-58.759421	-22.870096
51591		0.859429	-0.015222	-0.495239	-0.126053	10.972404	-58.768849	-22.879840
51592		0.859385	-0.015285	-0.495299	-0.126107	10.970929	-58.777391	-22.888043
51593		0.859347	-0.015330	-0.495346	-0.126174	10.973167	-58.783743	-22.899473
51594		0.859309	-0.015366	-0.495398	-0.126223	10.975561	-58.790573	-22.908926
51595		0.859267	-0.015404	-0.495452	-0.126295	10.979902	-58.797485	-22.922358
51596		0.859231	-0.015442	-0.495502	-0.126340	10.981339	-58.804246	-22.930603
51597		0.859206	-0.015501	-0.495526	-0.126402	10.978975	-58.808132	-22.938408
51598		0.859177	-0.015549	-0.495561	-0.126460	10.978759	-58.813087	-22.947010
51599		0.859152	-0.015601	-0.495590	-0.126511	10.976693	-58.817373	-22.953556
51600		0.859133	-0.015650	-0.495604	-0.126578	10.975762	-58.819643	-22.962329
51601		0.859121	-0.015695	-0.495609	-0.126634	10.973940	-58.820763	-22.969083
51602		0.859104	-0.015728	-0.495625	-0.126683	10.974315	-58.822939	-22.976278
51603		0.859092	-0.015766	-0.495633	-0.126729	10.972790	-58.824458	-22.981772
51604		0.859078	-0.015785	-0.495647	-0.126767	10.974324	-58.826182	-22.988130
51605		0.859072	-0.015793	-0.495643	-0.126820	10.978317	-58.825181	-22.997309
51606		0.859054	-0.015806	-0.495663	-0.126864	10.982010	-58.827516	-23.005710
51607		0.859049	-0.015839	-0.495663	-0.126896	10.979463	-58.828006	-23.008679
51608		0.859043	-0.015869	-0.495660	-0.126939	10.978452	-58.827866	-23.013842
51609		0.859041	-0.015897	-0.495655	-0.126975	10.976685	-58.827486	-23.017546
51610		0.859047	-0.015922	-0.495634	-0.127010	10.974297	-58.824986	-23.020308
51611		0.859052	-0.015949	-0.495612	-0.127056	10.972892	-58.822390	-23.025114
51612		0.859054	-0.015998	-0.495594	-0.127109	10.968162	-58.820698	-23.029037
51613		0.859059	-0.016007	-0.495576	-0.127144	10.969030	-58.818109	-23.033687
51614		0.859072	-0.016032	-0.495539	-0.127200	10.967795	-58.813422	-23.039447
51615		0.859088	-0.016048	-0.495502	-0.127229	10.965244	-58.808846	-23.040832
51616		0.859100	-0.016061	-0.495472	-0.127264	10.964507	-58.804915	-23.044300
51617		0.859115	-0.016067	-0.495436	-0.127301	10.964834	-58.800029	-23.048418
51618		0.859126	-0.016076	-0.495410	-0.127329	10.964411	-58.796586	-23.051181
51619		0.859132	-0.016084	-0.495391	-0.127364	10.965276	-58.793997	-23.055827
51620		0.859147	-0.016088	-0.495356	-0.127396	10.965460	-58.789200	-23.059189
51621		0.859161	-0.016077	-0.495324	-0.127430	10.968956	-58.784402	-23.064778
51622		0.859164	-0.016079	-0.495315	-0.127442	10.969305	-58.783206	-23.066298
51623		0.859177	-0.016099	-0.495274	-0.127510	10.969934	-58.777607	-23.074558
51624		0.859186	-0.016108	-0.495242	-0.127572	10.972725	-58.773075	-23.083497
51625		0.859197	-0.016115	-0.495209	-0.127626	10.974844	-58.768351	-23.090863
51626		0.859219	-0.016117	-0.495154	-0.127693	10.977826	-58.760620	-23.099999
51627		0.859237	-0.016115	-0.495109	-0.127745	10.980597	-58.754078	-23.107199
51628		0.859259	-0.016140	-0.495055	-0.127806	10.978759	-58.747114	-23.112803
51629		0.859277	-0.016155	-0.495006	-0.127870	10.979255	-58.740567	-23.120155
51630		0.859284	-0.016173	-0.494988	-0.127892	10.977101	-58.738399	-23.121457
51631		0.859282	-0.016172	-0.494974	-0.127960	10.983524	-58.735743	-23.133698
51632		0.859292	-0.016230	-0.494929	-0.128059	10.980306	-58.730365	-23.143870
51633		0.859288	-0.016262	-0.494918	-0.128126	10.980807	-58.728885	-23.152806
51634		0.859269	-0.016241	-0.494943	-0.128156	10.989784	-58.731198	-23.162412
51635		0.859265	-0.016213	-0.494944	-0.128187	10.998292	-58.730208	-23.171244
51636		0.859256	-0.016226	-0.494947	-0.128236	11.001314	-58.730227	-23.179521
51637		0.859250	-0.016234	-0.494942	-0.128289	11.005281	-58.729228	-23.188667
51638		0.859233	-0.016259	-0.494961	-0.128326	11.005982	-58.731830	-23.194555
51639		0.859228	-0.016243	-0.494963	-0.128356	11.012518	-58.731232	-23.202286
51640		0.859223	-0.016206	-0.494968	-0.128371	11.021199	-58.730743	-23.209138
51641		0.859212	-0.016159	-0.494984	-0.128393	11.033297	-58.731181	-23.219075
51642		0.859198	-0.016091	-0.495003	-0.128420	11.050151	-58.731420	-23.232470
51643		0.859186	-0.016023	-0.495018	-0.128450	11.067091	-58.731151	-23.246231
51644		0.859185	-0.015941	-0.495026	-0.128438	11.081393	-58.730246	-23.252584
51645		0.859183	-0.015871	-0.495024	-0.128470	11.097782	-58.727679	-23.265803
51646		0.859189	-0.015799	-0.495016	-0.128469	11.110293	-58.724831	-23.272243
51647		0.859193	-0.015727	-0.495010	-0.128477	11.123982	-58.722024	-23.280578
51648		0.859196	-0.015663	-0.495000	-0.128494	11.137147	-58.718906	-23.289898
51649		0.859200	-0.015598	-0.494991	-0.128514	11.150532	-58.715701	-23.299483
51650		0.859210	-0.015549	-0.494975	-0.128517	11.158757	-58.712346	-23.303932
51651		0.859211	-0.015505	-0.494968	-0.128543	11.169098	-58.710006	-23.312946
51652		0.859221	-0.015469	-0.494947	-0.128559	11.176023	-58.706242	-23.318185
51653		0.859220	-0.015409	-0.494944	-0.128582	11.189527	-58.703984	-23.328660
51654		0.859223	-0.015395	-0.494928	-0.128630	11.195982	-58.700879	-23.338020
51655		0.859222	-0.015359	-0.494919	-0.128676	11.206914	-58.698218	-23.349907
51656		0.859222	-0.015342	-0.494907	-0.128725	11.214464	-58.695589	-23.360269
51657		0.859227	-0.015318	-0.494887	-0.128769	11.222097	-58.691896	-23.369786
51658		0.859237	-0.015283	-0.494864	-0.128795	11.229763	-58.687778	-23.376710
51659		0.859239	-0.015246	-0.494853	-0.128824	11.238892	-58.684957	-23.385337
51660		0.859245	-0.015243	-0.494830	-0.128875	11.243147	-58.681351	-23.393718
51661		0.859259	-0.015264	-0.494799	-0.128900	11.239784	-58.677652	-23.394335
51662		0.859278	-0.015242	-0.494763	-0.128910	11.242342	-58.672385	-23.396029
51663		0.859288	-0.015162	-0.494756	-0.128882	11.253608	-58.669732	-23.398196
51664		0.859293	-0.015133	-0.494747	-0.128889	11.259021	-58.667726	-23.401900
51665		0.859305	-0.015176	-0.494718	-0.128914	11.251725	-58.664816	-23.400332
51666		0.859323	-0.015193	-0.494685	-0.128917	11.246436	-58.661047	-23.396922
51667		0.859327	-0.015203	-0.494678	-0.128917	11.244233	-58.660438	-23.395577
51668		0.859348	-0.015218	-0.494654	-0.128866	11.234153	-58.658458	-23.382510
51669		0.859360	-0.015215	-0.494630	-0.128877	11.234257	-58.655239	-23.383334
51670		0.859375	-0.015220	-0.494613	-0.128849	11.228969	-58.653529	-23.376240
51671		0.859389	-0.015237	-0.494588	-0.128843	11.223348	-58.650941	-23.371633
51672		0.859405	-0.015258	-0.494562	-0.128832	11.216558	-58.648379	-23.365690
51673		0.859434	-0.015289	-0.494515	-0.128822	11.206326	-58.643335	-23.357457
51674		0.859464	-0.015319	-0.494463	-0.128818	11.196668	-58.637572	-23.350098
51675		0.859492	-0.015350	-0.494415	-0.128808	11.186441	-58.632527	-23.341870
51676		0.859523	-0.015367	-0.494362	-0.128801	11.178752	-58.626318	-23.335204
51677		0.859558	-0.015411	-0.494304	-0.128790	11.165246	-58.620240	-23.324624
51678		0.859594	-0.015447	-0.494244	-0.128774	11.152606	-58.613860	-23.313890
51679		0.859622	-0.015468	-0.494196	-0.128765	11.144357	-58.608420	-23.306763
51680		0.859652	-0.015505	-0.494145	-0.128756	11.132829	-58.603050	-23.297904
51681		0.859690	-0.015545	-0.494081	-0.128748	11.120109	-58.596101	-23.288064
51682		0.859721	-0.015595	-0.494029	-0.128734	11.105709	-58.591063	-23.276791
51683		0.859747	-0.015659	-0.493984	-0.128723	11.089616	-58.587190	-23.265317
51684		0.859770	-0.015710	-0.493944	-0.128716	11.076434	-58.583571	-23.255960
51685		0.859796	-0.015774	-0.493899	-0.128705	11.060347	-58.579696	-23.244491
51686		0.859812	-0.015801	-0.493875	-0.128688	11.051704	-58.577505	-23.236800
51687		0.859828	-0.015872	-0.493851	-0.128664	11.034499	-58.576709	-23.223522
51688		0.859839	-0.015915	-0.493839	-0.128634	11.022450	-58.576649	-23.212684
51689		0.859857	-0.015981	-0.493810	-0.128614	11.006018	-58.574982	-23.200133
51690		0.859871	-0.016036	-0.493787	-0.128605	10.993334	-58.573617	-23.191377
51691		0.859888	-0.016085	-0.493762	-0.128581	10.980062	-58.572032	-23.180281
51692		0.859911	-0.016136	-0.493722	-0.128573	10.966962	-58.568465	-23.170972
51693		0.859927	-0.016196	-0.493698	-0.128549	10.951728	-58.567269	-23.158789
51694		0.859950	-0.016242	-0.493661	-0.128532	10.938823	-58.564031	-23.148441
51695		0.859957	-0.016275	-0.493646	-0.128539	10.932283	-58.562856	-23.145286
51696		0.859971	-0.016312	-0.493624	-0.128527	10.922675	-58.561178	-23.137861
51697		0.859977	-0.016360	-0.493613	-0.128521	10.912503	-58.561179	-23.131267
51698		0.859984	-0.016393	-0.493599	-0.128525	10.905814	-58.560128	-23.127717
51699		0.859993	-0.016436	-0.493583	-0.128523	10.896417	-58.559261	-23.121852
51700		0.859992	-0.016495	-0.493580	-0.128529	10.886146	-58.560434	-23.117028
51701		0.859999	-0.016532	-0.493569	-0.128524	10.877939	-58.560043	-23.111524
51702		0.860000	-0.016576	-0.493564	-0.128533	10.870378	-58.560370	-23.108498
51703		0.860003	-0.016629	-0.493559	-0.128524	10.859430	-58.561236	-23.101173
51704		0.860001	-0.016679	-0.493561	-0.128524	10.850297	-58.562783	-23.096201
51705		0.860003	-0.016721	-0.493556	-0.128523	10.842206	-58.563341	-23.091587
51706		0.860008	-0.016761	-0.493546	-0.128520	10.833766	-58.563087	-23.086349
51707		0.860016	-0.016794	-0.493530	-0.128527	10.827229	-58.561910	-23.083196
51708		0.860019	-0.016834	-0.493525	-0.128514	10.818134	-58.562522	-23.076436
51709		0.860022	-0.016859	-0.493524	-0.128503	10.812305	-58.563083	-23.071654
51710		0.860032	-0.016910	-0.493504	-0.128503	10.801614	-58.561940	-23.065336
51711		0.860030	-0.016935	-0.493505	-0.128508	10.797570	-58.562668	-23.063794
51712		0.860031	-0.016970	-0.493501	-0.128512	10.791204	-58.562992	-23.060716
51713		0.860030	-0.017009	-0.493506	-0.128496	10.782631	-58.564807	-23.054108
51714		0.860029	-0.017047	-0.493507	-0.128494	10.775539	-58.566005	-23.049963
51715		0.860021	-0.017098	-0.493517	-0.128502	10.767677	-58.568460	-23.047123
51716		0.860005	-0.017128	-0.493545	-0.128495	10.763404	-58.572888	-23.044655
51717		0.860002	-0.017175	-0.493548	-0.128499	10.755425	-58.574393	-23.040925
51718		0.859991	-0.017208	-0.493569	-0.128484	10.749101	-58.578225	-23.035982
51719		0.859986	-0.017249	-0.493577	-0.128485	10.742309	-58.580207	-23.032611
51720		0.859976	-0.017286	-0.493596	-0.128476	10.735835	-58.583722	-23.028534
51721		0.859969	-0.017309	-0.493607	-0.128474	10.732197	-58.585793	-23.026615
51722		0.859962	-0.017332	-0.493619	-0.128470	10.728379	-58.587969	-23.024334
51723		0.859962	-0.017350	-0.493623	-0.128456	10.723733	-58.589004	-23.019906
51724		0.859961	-0.017380	-0.493620	-0.128467	10.719185	-58.589377	-23.018891
51725		0.859955	-0.017411	-0.493639	-0.128434	10.711304	-58.592926	-23.010637
51726		0.859958	-0.017446	-0.493629	-0.128448	10.705597	-58.592389	-23.009138
51727		0.859953	-0.017479	-0.493640	-0.128437	10.699094	-58.594763	-23.004500
51728		0.859947	-0.017511	-0.493651	-0.128423	10.692458	-58.597258	-22.999243
51729		0.859943	-0.017534	-0.493661	-0.128412	10.687922	-58.599243	-22.995698
51730		0.859935	-0.017551	-0.493682	-0.128382	10.682837	-58.602651	-22.989364
51731		0.859924	-0.017579	-0.493700	-0.128384	10.679308	-58.605672	-22.988326
51732		0.859920	-0.017588	-0.493706	-0.128386	10.678209	-58.606610	-22.988096
51733		0.859924	-0.017623	-0.493703	-0.128366	10.669506	-58.607469	-22.980586
51734		0.859921	-0.017636	-0.493706	-0.128374	10.668155	-58.607983	-22.981059
51735		0.859915	-0.017644	-0.493712	-0.128384	10.668158	-58.608884	-22.982588
51736		0.859917	-0.017655	-0.493708	-0.128392	10.666708	-58.608520	-22.982693
51737		0.859917	-0.017669	-0.493707	-0.128389	10.663733	-58.608772	-22.980619
51738		0.859914	-0.017694	-0.493709	-0.128400	10.660374	-58.609682	-22.980338
51739		0.859921	-0.017741	-0.493687	-0.128429	10.653251	-58.607715	-22.979712
51740		0.859918	-0.017746	-0.493700	-0.128398	10.649987	-58.609827	-22.974172
51741		0.859907	-0.017781	-0.493715	-0.128412	10.646162	-58.612455	-22.974394
51742		0.859897	-0.017822	-0.493722	-0.128446	10.642587	-58.614006	-22.977188
51743		0.859867	-0.017845	-0.493774	-0.128445	10.642059	-58.621229	-22.978257
51744		0.859854	-0.017838	-0.493804	-0.128415	10.642214	-58.625276	-22.975146
51745		0.859831	-0.017844	-0.493848	-0.128402	10.642648	-58.631075	-22.974803
51746		0.859803	-0.017886	-0.493896	-0.128398	10.637874	-58.638304	-22.973030
51747		0.859778	-0.017938	-0.493934	-0.128406	10.631811	-58.644481	-22.971921
51748		0.859746	-0.017978	-0.493997	-0.128378	10.625785	-58.653769	-22.966667
51749		0.859717	-0.017993	-0.494051	-0.128358	10.624649	-58.661301	-22.964843
51750		0.859693	-0.017977	-0.494102	-0.128330	10.628328	-58.667704	-22.964519
51751		0.859666	-0.017945	-0.494161	-0.128288	10.633690	-58.674858	-22.963460
51752		0.859638	-0.017894	-0.494220	-0.128254	10.643729	-58.681486	-22.966106
51753		0.859616	-0.017847	-0.494271	-0.128208	10.650953	-58.687302	-22.965263
51754		0.859600	-0.017807	-0.494310	-0.128174	10.657396	-58.691524	-22.965291
51755		0.859591	-0.017771	-0.494335	-0.128144	10.662624	-58.694174	-22.964846
51756		0.859591	-0.017749	-0.494343	-0.128116	10.664143	-58.694999	-22.962132
51757		0.859591	-0.017736	-0.494356	-0.128067	10.662324	-58.696824	-22.954990
51758		0.859590	-0.017728	-0.494362	-0.128051	10.662533	-58.697671	-22.953206
51759		0.859592	-0.017703	-0.494362	-0.128038	10.665763	-58.697154	-22.953160
51760		0.859603	-0.017682	-0.494352	-0.128010	10.665785	-58.695631	-22.949134
51761		0.859622	-0.017649	-0.494326	-0.127986	10.667486	-58.691783	-22.946069
51762		0.859638	-0.017616	-0.494310	-0.127949	10.668449	-58.689336	-22.941222
51763		0.859652	-0.017588	-0.494291	-0.127929	10.670263	-58.686440	-22.939043
51764		0.859666	-0.017538	-0.494276	-0.127898	10.675103	-58.683697	-22.937173
51765		0.859685	-0.017522	-0.494248	-0.127885	10.674541	-58.679844	-22.934275
51766		0.859704	-0.017517	-0.494220	-0.127861	10.671032	-58.676520	-22.928376
51767		0.859725	-0.017501	-0.494190	-0.127839	10.669574	-58.672581	-22.923853
51768		0.859750	-0.017496	-0.494152	-0.127819	10.665600	-58.667788	-22.917838
51769		0.859775	-0.017493	-0.494112	-0.127804	10.661768	-58.662892	-22.912600
51770		0.859806	-0.017486	-0.494061	-0.127793	10.658328	-58.656344	-22.907904
51771		0.859841	-0.017480	-0.494004	-0.127780	10.653985	-58.649152	-22.902164
51772		0.859880	-0.017386	-0.493956	-0.127720	10.661502	-58.641324	-22.896864
51773		0.859899	-0.017335	-0.493933	-0.127684	10.665467	-58.637487	-22.893627
51774		0.859929	-0.017350	-0.493877	-0.127699	10.660465	-58.630620	-22.891324
51775		0.859959	-0.017363	-0.493831	-0.127670	10.651693	-58.625461	-22.881390
51776		0.859982	-0.017349	-0.493804	-0.127624	10.647451	-58.622262	-22.872087
51777		0.860018	-0.017339	-0.493753	-0.127579	10.640832	-58.616158	-22.861102
51778		0.860054	-0.017336	-0.493697	-0.127551	10.634522	-58.609285	-22.852339
51779		0.860089	-0.017313	-0.493643	-0.127527	10.632455	-58.602103	-22.846439
51780		0.860134	-0.017320	-0.493573	-0.127495	10.622866	-58.593835	-22.835059
51781		0.860170	-0.017307	-0.493519	-0.127462	10.617941	-58.586952	-22.826446
51782		0.860212	-0.017286	-0.493453	-0.127436	10.614325	-58.578426	-22.819145
51783		0.860268	-0.017272	-0.493368	-0.127396	10.606712	-58.567732	-22.807179
51784		0.860314	-0.017266	-0.493294	-0.127370	10.599925	-58.558578	-22.798034
51785		0.860353	-0.017242	-0.493237	-0.127329	10.596088	-58.551225	-22.788903
51786		0.860395	-0.017203	-0.493175	-0.127292	10.594818	-58.542777	-22.781465
51787		0.860443	-0.017180	-0.493105	-0.127241	10.588805	-58.533908	-22.769481
51788		0.860498	-0.017157	-0.493020	-0.127202	10.582959	-58.522974	-22.758719
51789		0.860548	-0.017148	-0.492941	-0.127166	10.575484	-58.513232	-22.747659
51790		0.860621	-0.017150	-0.492820	-0.127146	10.564377	-58.498120	-22.735469
51791		0.860683	-0.017148	-0.492723	-0.127103	10.553559	-58.486381	-22.721217
51792		0.860745	-0.017156	-0.492619	-0.127085	10.542904	-58.473552	-22.710137
51793		0.860818	-0.017158	-0.492500	-0.127048	10.530425	-58.459038	-22.695059
51794		0.860883	-0.017149	-0.492400	-0.127002	10.520303	-58.446563	-22.680731
51795		0.860949	-0.017156	-0.492290	-0.126978	10.508839	-58.433086	-22.668167
51796		0.861016	-0.017144	-0.492180	-0.126947	10.500276	-58.419273	-22.656334
51797		0.861081	-0.017119	-0.492071	-0.126939	10.496494	-58.404825	-22.650277
51798		0.861142	-0.017077	-0.491978	-0.126890	10.492653	-58.392538	-22.639029
51799		0.861205	-0.017060	-0.491876	-0.126859	10.485538	-58.379641	-22.628273
51800		0.861261	-0.017047	-0.491785	-0.126829	10.478412	-58.368145	-22.617881
51801		0.861320	-0.017018	-0.491694	-0.126792	10.473662	-58.356210	-22.607828
51802		0.861371	-0.016976	-0.491614	-0.126756	10.471943	-58.345446	-22.599872
51803		0.861424	-0.016916	-0.491536	-0.126709	10.472688	-58.334572	-22.591945
51804		0.861471	-0.016848	-0.491462	-0.126688	10.477832	-58.323716	-22.589844
51805		0.861515	-0.016783	-0.491392	-0.126663	10.482406	-58.313588	-22.587100
51806		0.861561	-0.016709	-0.491322	-0.126631	10.487866	-58.303171	-22.583885
51807		0.861599	-0.016638	-0.491261	-0.126619	10.495378	-58.293702	-22.584706
51808		0.861638	-0.016567	-0.491197	-0.126614	10.503543	-58.283941	-22.586668
51809		0.861674	-0.016497	-0.491137	-0.126610	10.511933	-58.274561	-22.589093
51810		0.861706	-0.016397	-0.491090	-0.126588	10.524712	-58.266292	-22.591772
51811		0.861734	-0.016297	-0.491045	-0.126584	10.539453	-58.258061	-22.597907
51812		0.861757	-0.016204	-0.491007	-0.126585	10.554069	-58.250922	-22.604936
51813		0.861767	-0.016112	-0.490989	-0.126599	10.571156	-58.246106	-22.615646
51814		0.861776	-0.016006	-0.490970	-0.126623	10.591803	-58.240686	-22.629529
51815		0.861792	-0.015906	-0.490941	-0.126645	10.610441	-58.234144	-22.641691
51816		0.861798	-0.015803	-0.490925	-0.126673	10.631049	-58.229218	-22.656086
51817		0.861807	-0.015690	-0.490897	-0.126739	10.656810	-58.221861	-22.678089
51818		0.861812	-0.015577	-0.490874	-0.126810	10.683429	-58.215173	-22.701417
51819		0.861816	-0.015458	-0.490851	-0.126882	10.711223	-58.208374	-22.725348
51820		0.861828	-0.015314	-0.490813	-0.126968	10.743926	-58.198713	-22.753406
51821		0.861837	-0.015175	-0.490779	-0.127054	10.776075	-58.189880	-22.781439
51822		0.861847	-0.015043	-0.490736	-0.127168	10.809270	-58.179516	-22.813338
51823		0.861852	-0.014908	-0.490698	-0.127294	10.844498	-58.169667	-22.848143
51824		0.861859	-0.014783	-0.490656	-0.127425	10.878294	-58.159474	-22.882727
51825		0.861873	-0.014656	-0.490601	-0.127553	10.911019	-58.147704	-22.915906
51826		0.861886	-0.014540	-0.490545	-0.127701	10.943998	-58.135676	-22.951956
51827		0.861900	-0.014413	-0.490490	-0.127829	10.976674	-58.123890	-22.985078
51828		0.861892	-0.014314	-0.490465	-0.127985	11.009512	-58.116145	-23.022952
51829		0.861896	-0.014193	-0.490422	-0.128142	11.044886	-58.105538	-23.061732
51830		0.861886	-0.014113	-0.490395	-0.128320	11.076227	-58.097789	-23.101574
51831		0.861889	-0.014000	-0.490348	-0.128488	11.111255	-58.086767	-23.141561
51832		0.861896	-0.013901	-0.490301	-0.128635	11.141329	-58.076381	-23.176068
51833		0.861891	-0.013807	-0.490268	-0.128804	11.173722	-58.067539	-23.215123
51834		0.861881	-0.013735	-0.490238	-0.128995	11.204679	-58.059369	-23.256325
51835		0.861873	-0.013663	-0.490207	-0.129171	11.234032	-58.051367	-23.294825
51836		0.861868	-0.013598	-0.490169	-0.129359	11.262822	-58.042318	-23.334249
51837		0.861865	-0.013535	-0.490125	-0.129553	11.291414	-58.032565	-23.374322
51838		0.861852	-0.013478	-0.490094	-0.129758	11.321053	-58.024492	-23.416653
51839		0.861853	-0.013414	-0.490047	-0.129936	11.347856	-58.014563	-23.453474
51840		0.861841	-0.013334	-0.490020	-0.130129	11.380669	-58.006491	-23.496021
51841		0.861825	-0.013253	-0.490005	-0.130295	11.411522	-58.000256	-23.534392
51842		0.861810	-0.013196	-0.489982	-0.130489	11.440492	-57.993316	-23.575116
51843		0.861808	-0.013119	-0.489943	-0.130652	11.468709	-57.984226	-23.610950
51844		0.861795	-0.013029	-0.489922	-0.130828	11.501899	-57.976850	-23.651677
51845		0.861800	-0.012965	-0.489872	-0.130990	11.526843	-57.966720	-23.685169
51846		0.861803	-0.012893	-0.489830	-0.131136	11.552055	-57.957507	-23.716946
51847		0.861806	-0.012826	-0.489788	-0.131275	11.575654	-57.948550	-23.746853
51848		0.861804	-0.012753	-0.489752	-0.131434	11.602795	-57.939925	-23.781626
51849		0.861810	-0.012685	-0.489708	-0.131564	11.625492	-57.930882	-23.809900
51850		0.861813	-0.012643	-0.489665	-0.131708	11.644892	-57.922338	-23.838100
51851		0.861821	-0.012607	-0.489621	-0.131821	11.660040	-57.914317	-23.860018
51852		0.861823	-0.012571	-0.489600	-0.131893	11.672516	-57.909758	-23.875715
51853		0.861816	-0.012528	-0.489587	-0.131986	11.688970	-57.905751	-23.896596
51854		0.861813	-0.012550	-0.489559	-0.132105	11.695470	-57.901215	-23.915174
51855		0.861807	-0.012589	-0.489546	-0.132192	11.696390	-57.899424	-23.926808
51856		0.861794	-0.012563	-0.489555	-0.132245	11.707154	-57.899117	-23.939939
51857		0.861787	-0.012536	-0.489557	-0.132284	11.716274	-57.898191	-23.950059
51858		0.861777	-0.012537	-0.489563	-0.132330	11.721282	-57.898276	-23.959114
51859		0.861771	-0.012570	-0.489563	-0.132363	11.718727	-57.898779	-23.962080
51860		0.861750	-0.012613	-0.489595	-0.132382	11.715171	-57.903715	-23.963640
51861		0.861730	-0.012622	-0.489629	-0.132383	11.716178	-57.908234	-23.965386
51862		0.861722	-0.012644	-0.489640	-0.132394	11.714182	-57.910088	-23.966117
51863		0.861708	-0.012627	-0.489666	-0.132391	11.718908	-57.912872	-23.969037
51864		0.861684	-0.012615	-0.489711	-0.132381	11.723209	-57.918371	-23.971261
51865		0.861665	-0.012592	-0.489755	-0.132348	11.727074	-57.923679	-23.970308
51866		0.861654	-0.012580	-0.489787	-0.132301	11.726694	-57.928009	-23.964738
51867		0.861647	-0.012569	-0.489815	-0.132242	11.724701	-57.932068	-23.956684
51868		0.861648	-0.012543	-0.489832	-0.132172	11.723333	-57.934494	-23.947071
51869		0.861653	-0.012528	-0.489842	-0.132107	11.719893	-57.936195	-23.936845
51870		0.861640	-0.012511	-0.489886	-0.132033	11.718506	-57.942229	-23.927478
51871		0.861628	-0.012523	-0.489929	-0.131947	11.710605	-57.949132	-23.913100
51872		0.861627	-0.012520	-0.489954	-0.131860	11.703884	-57.953455	-23.898697
51873		0.861627	-0.012511	-0.489981	-0.131757	11.696768	-57.957998	-23.881937
51874		0.861628	-0.012501	-0.490007	-0.131660	11.690351	-57.962280	-23.866255
51875		0.861630	-0.012491	-0.490033	-0.131549	11.682354	-57.966746	-23.847886
51876		0.861626	-0.012515	-0.490067	-0.131449	11.670286	-57.973071	-23.829191
51877		0.861621	-0.012514	-0.490105	-0.131340	11.661663	-57.979346	-23.811024
51878		0.861611	-0.012505	-0.490153	-0.131227	11.655096	-57.986640	-23.793876
51879		0.861606	-0.012497	-0.490195	-0.131105	11.646769	-57.993309	-23.774443
51880		0.861603	-0.012496	-0.490234	-0.130976	11.636361	-57.999950	-23.752792
51881		0.861604	-0.012495	-0.490268	-0.130842	11.625088	-58.005989	-23.729790
51882		0.861610	-0.012494	-0.490292	-0.130711	11.613191	-58.010814	-23.706638
51883		0.861610	-0.012489	-0.490324	-0.130596	11.604407	-58.016140	-23.687525
51884		0.861622	-0.012470	-0.490346	-0.130429	11.592119	-58.020707	-23.659335
51885		0.861623	-0.012366	-0.490391	-0.130267	11.597323	-58.025741	-23.641832
51886		0.861620	-0.012340	-0.490434	-0.130124	11.590142	-58.032433	-23.620061
51887		0.861609	-0.012345	-0.490481	-0.130026	11.582466	-58.039725	-23.604336
51888		0.861595	-0.012327	-0.490542	-0.129889	11.575802	-58.048832	-23.584166
51889		0.861564	-0.012288	-0.490636	-0.129742	11.574307	-58.061498	-23.566606
51890		0.861557	-0.012241	-0.490694	-0.129570	11.568929	-58.069929	-23.542388
51891		0.861539	-0.012195	-0.490764	-0.129429	11.567619	-58.079447	-23.524960
51892		0.861509	-0.012156	-0.490855	-0.129291	11.566663	-58.091758	-23.508662
51893		0.861485	-0.012126	-0.490933	-0.129154	11.563527	-58.102613	-23.491069
51894		0.861456	-0.012085	-0.491022	-0.129013	11.562508	-58.114562	-23.474260
51895		0.861442	-0.012063	-0.491083	-0.128879	11.556869	-58.123524	-23.455049
51896		0.861419	-0.012043	-0.491153	-0.128768	11.553826	-58.133299	-23.440637
51897		0.861398	-0.012022	-0.491219	-0.128657	11.550815	-58.142498	-23.426236
51898		0.861377	-0.011986	-0.491291	-0.128529	11.549038	-58.152323	-23.410227
51899		0.861355	-0.011954	-0.491357	-0.128427	11.548838	-58.161213	-23.398478
51900		0.861323	-0.011950	-0.491437	-0.128335	11.545686	-58.172428	-23.386807
51901		0.861301	-0.011907	-0.491492	-0.128276	11.551283	-58.179040	-23.383615
51902		0.861272	-0.011894	-0.491567	-0.128181	11.549010	-58.189412	-23.371796
51903		0.861245	-0.011892	-0.491634	-0.128106	11.546379	-58.198843	-23.362401
51904		0.861208	-0.011892	-0.491716	-0.128045	11.545712	-58.209959	-23.356213
51905		0.861171	-0.011906	-0.491794	-0.127991	11.543022	-58.220881	-23.349878
51906		0.861130	-0.011916	-0.491878	-0.127942	11.542189	-58.232495	-23.345412
51907		0.861089	-0.011913	-0.491962	-0.127894	11.543506	-58.243587	-23.342092
51908		0.861034	-0.011945	-0.492060	-0.127889	11.544281	-58.256863	-23.344687
51909		0.860991	-0.011943	-0.492144	-0.127849	11.546482	-58.268035	-23.342979
51910		0.860946	-0.011969	-0.492226	-0.127842	11.546802	-58.279060	-23.344615
51911		0.860899	-0.011981	-0.492306	-0.127841	11.550181	-58.289594	-23.348665
51912		0.860852	-0.012014	-0.492388	-0.127844	11.550390	-58.300684	-23.351596
51913		0.860804	-0.012020	-0.492473	-0.127840	11.554958	-58.311697	-23.355999
51914		0.860749	-0.012037	-0.492566	-0.127848	11.559361	-58.323845	-23.362176
51915		0.860696	-0.012037	-0.492658	-0.127848	11.566009	-58.335414	-23.368552
51916		0.860638	-0.012062	-0.492752	-0.127874	11.570981	-58.347603	-23.377375
51917		0.860577	-0.012075	-0.492850	-0.127907	11.579248	-58.359877	-23.389165
51918		0.860523	-0.012119	-0.492929	-0.127960	11.582427	-58.370349	-23.400232
51919		0.860462	-0.012152	-0.493017	-0.128027	11.589818	-58.381428	-23.415828
51920		0.860401	-0.012188	-0.493110	-0.128078	11.595429	-58.393445	-23.428441
51921		0.860342	-0.012221	-0.493197	-0.128137	11.601945	-58.404444	-23.442431
51922		0.860273	-0.012257	-0.493300	-0.128203	11.609617	-58.417577	-23.458374
51923		0.860205	-0.012296	-0.493396	-0.128283	11.618063	-58.429679	-23.476522
51924		0.860133	-0.012310	-0.493498	-0.128372	11.632231	-58.441690	-23.499029
51925		0.860064	-0.012338	-0.493594	-0.128460	11.643544	-58.453479	-23.519884
51926		0.859987	-0.012365	-0.493702	-0.128559	11.656862	-58.466469	-23.543471
51927		0.859923	-0.012396	-0.493789	-0.128654	11.667772	-58.476912	-23.564703
51928		0.859849	-0.012427	-0.493888	-0.128761	11.680615	-58.488934	-23.588890
51929		0.859781	-0.012447	-0.493977	-0.128873	11.695291	-58.499140	-23.614454
51930		0.859713	-0.012461	-0.494070	-0.128972	11.710153	-58.509932	-23.638477
51931		0.859649	-0.012469	-0.494155	-0.129067	11.725016	-58.519587	-23.661886
51932		0.859577	-0.012466	-0.494250	-0.129189	11.745546	-58.529833	-23.692135
51933		0.859501	-0.012471	-0.494357	-0.129279	11.762199	-58.542247	-23.716485
51934		0.859437	-0.012440	-0.494441	-0.129388	11.785578	-58.550571	-23.746158
51935		0.859378	-0.012437	-0.494522	-0.129467	11.800649	-58.559668	-23.767432
51936		0.859314	-0.012425	-0.494614	-0.129544	11.817876	-58.569892	-23.789849
51937		0.859258	-0.012417	-0.494690	-0.129627	11.833728	-58.578117	-23.811851
51938		0.859198	-0.012386	-0.494780	-0.129685	11.852238	-58.587872	-23.832362
51939		0.859142	-0.012372	-0.494859	-0.129757	11.868408	-58.596490	-23.853118
51940		0.859092	-0.012356	-0.494930	-0.129819	11.883224	-58.604157	-23.871600
51941		0.859047	-0.012342	-0.494994	-0.129872	11.896269	-58.611199	-23.887839
51942		0.858997	-0.012299	-0.495071	-0.129917	11.914624	-58.619080	-23.906109
51943		0.858948	-0.012301	-0.495142	-0.129967	11.924971	-58.627383	-23.920580
51944		0.858899	-0.012297	-0.495213	-0.130023	11.937006	-58.635463	-23.936743
51945		0.858848	-0.012267	-0.495294	-0.130047	11.951114	-58.644640	-23.950135
51946		0.858802	-0.012235	-0.495370	-0.130067	11.964925	-58.653073	-23.962680
51947		0.858756	-0.012194	-0.495449	-0.130075	11.979198	-58.661702	-23.973902
51948		0.858713	-0.012164	-0.495524	-0.130076	11.990314	-58.670411	-23.982253
51949		0.858670	-0.012126	-0.495593	-0.130098	12.005060	-58.677770	-23.995458
51950		0.858630	-0.012075	-0.495667	-0.130085	12.018403	-58.685969	-24.003134
51951		0.858586	-0.012038	-0.495748	-0.130073	12.030135	-58.695315	-24.010412
51952		0.858545	-0.012007	-0.495820	-0.130072	12.041203	-58.703520	-24.018575
51953		0.858507	-0.011981	-0.495890	-0.130059	12.049637	-58.711843	-24.023498
51954		0.858474	-0.011966	-0.495948	-0.130053	12.056394	-58.718916	-24.028224
51955		0.858439	-0.011943	-0.496009	-0.130055	12.065294	-58.725969	-24.035125
51956		0.858409	-0.011906	-0.496059	-0.130069	12.077340	-58.730996	-24.045056
51957		0.858383	-0.011878	-0.496110	-0.130049	12.084284	-58.736954	-24.047776
51958		0.858353	-0.011831	-0.496165	-0.130039	12.095913	-58.742838	-24.054487
51959		0.858331	-0.011784	-0.496206	-0.130035	12.107240	-58.746733	-24.061332
51960		0.858306	-0.011739	-0.496253	-0.130022	12.117717	-58.751660	-24.066740
51961		0.858288	-0.011698	-0.496288	-0.130013	12.126938	-58.755006	-24.071590
51962		0.858275	-0.011644	-0.496315	-0.130002	12.137732	-58.757182	-24.076892
51963		0.858255	-0.011592	-0.496350	-0.130001	12.149822	-58.760206	-24.084451
51964		0.858239	-0.011545	-0.496383	-0.129989	12.159810	-58.763218	-24.089316
51965		0.858225	-0.011510	-0.496411	-0.129975	12.166924	-58.766017	-24.092169
51966		0.858217	-0.011515	-0.496431	-0.129950	12.164725	-58.769060	-24.088277
51967		0.858196	-0.011471	-0.496475	-0.129926	12.173492	-58.773678	-24.091159
51968		0.858171	-0.011445	-0.496520	-0.129917	12.180843	-58.778845	-24.095288
51969		0.858152	-0.011461	-0.496551	-0.129929	12.181643	-58.782978	-24.098375
51970		0.858124	-0.011479	-0.496598	-0.129930	12.181928	-58.789421	-24.100092
51971		0.858087	-0.011443	-0.496678	-0.129874	12.188421	-58.799268	-24.098545
51972		0.858057	-0.011424	-0.496741	-0.129829	12.191966	-58.807352	-24.096437
51973		0.858022	-0.011424	-0.496814	-0.129787	12.193037	-58.817119	-24.093634
51974		0.857972	-0.011448	-0.496904	-0.129767	12.193193	-58.829493	-24.093810
51975		0.857933	-0.011470	-0.496980	-0.129733	12.191250	-58.840129	-24.090486
51976		0.857893	-0.011503	-0.497063	-0.129671	12.184828	-58.852455	-24.081242
51977		0.857854	-0.011511	-0.497146	-0.129613	12.183466	-58.863893	-24.075376
51978		0.857810	-0.011482	-0.497243	-0.129535	12.187672	-58.876473	-24.070142
51979		0.857759	-0.011443	-0.497346	-0.129481	12.196887	-58.889165	-24.071186
51980		0.857719	-0.011406	-0.497439	-0.129391	12.201157	-58.901203	-24.064293
51981		0.857688	-0.011369	-0.497514	-0.129310	12.204910	-58.910837	-24.057827
51982		0.857668	-0.011345	-0.497561	-0.129264	12.207993	-58.916707	-24.054812
51983		0.857648	-0.011344	-0.497616	-0.129188	12.204034	-58.924765	-24.044140
51984		0.857636	-0.011327	-0.497656	-0.129115	12.202230	-58.930285	-24.034514
51985		0.857621	-0.011329	-0.497701	-0.129045	12.197819	-58.936997	-24.024176
51986		0.857606	-0.011326	-0.497749	-0.128958	12.192632	-58.944254	-24.011166
51987		0.857592	-0.011309	-0.497795	-0.128869	12.189557	-58.950897	-23.998992
51988		0.857570	-0.011304	-0.497850	-0.128809	12.188188	-58.958517	-23.991872
51989		0.857562	-0.011296	-0.497882	-0.128738	12.184371	-58.963414	-23.981306
51990		0.857552	-0.011281	-0.497924	-0.128643	12.180011	-58.969667	-23.967464
51991		0.857538	-0.011290	-0.497965	-0.128577	12.174373	-58.975905	-23.956735
51992		0.857529	-0.011292	-0.497997	-0.128512	12.169286	-58.981032	-23.946218
51993		0.857520	-0.011313	-0.498028	-0.128452	12.161228	-58.986318	-23.934741
51994		0.857507	-0.011358	-0.498063	-0.128401	12.149996	-58.992657	-23.922756
51995		0.857490	-0.011388	-0.498106	-0.128342	12.141320	-58.999757	-23.911481
51996		0.857471	-0.011432	-0.498145	-0.128312	12.132867	-59.006294	-23.904033
51997		0.857453	-0.011488	-0.498194	-0.128242	12.118554	-59.014978	-23.888213
51998		0.857436	-0.011529	-0.498227	-0.128218	12.110780	-59.020613	-23.881737
51999		0.857427	-0.011544	-0.498261	-0.128146	12.102987	-59.026295	-23.868962
52000		0.857398	-0.011521	-0.498331	-0.128071	12.104164	-59.035571	-23.861647
52001		0.857393	-0.011598	-0.498343	-0.128052	12.088853	-59.039484	-23.851045
52002		0.857374	-0.011683	-0.498378	-0.128036	12.073992	-59.046359	-23.841824
52003		0.857350	-0.011775	-0.498424	-0.128004	12.056960	-59.055173	-23.829626
52004		0.857311	-0.011826	-0.498501	-0.127965	12.048877	-59.066797	-23.822255
52005		0.857278	-0.011928	-0.498561	-0.127942	12.032133	-59.077503	-23.811887
52006		0.857240	-0.012017	-0.498630	-0.127922	12.018387	-59.088846	-23.803626
52007		0.857202	-0.012063	-0.498698	-0.127902	12.012872	-59.099007	-23.799999
52008		0.857158	-0.012140	-0.498776	-0.127890	12.003307	-59.111058	-23.795624
52009		0.857127	-0.012191	-0.498836	-0.127857	11.994732	-59.120589	-23.788323
52010		0.857097	-0.012253	-0.498893	-0.127832	11.984657	-59.129748	-23.781114
52011		0.857063	-0.012316	-0.498956	-0.127807	11.975016	-59.139748	-23.774354
52012		0.857031	-0.012387	-0.499019	-0.127768	11.962372	-59.150192	-23.764164
52013		0.856993	-0.012430	-0.499095	-0.127725	11.955419	-59.161547	-23.756854
52014		0.856952	-0.012483	-0.499172	-0.127687	11.947106	-59.173348	-23.749474
52015		0.856921	-0.012560	-0.499237	-0.127633	11.931909	-59.184380	-23.735912
52016		0.856883	-0.012618	-0.499320	-0.127561	11.919377	-59.197444	-23.721866
52017		0.856840	-0.012698	-0.499404	-0.127514	11.905670	-59.210846	-23.710496
52018		0.856797	-0.012762	-0.499497	-0.127430	11.891556	-59.225544	-23.694262
52019		0.856741	-0.012842	-0.499607	-0.127365	11.877911	-59.242511	-23.681416
52020		0.856685	-0.012921	-0.499714	-0.127315	11.865755	-59.258853	-23.671264
52021		0.856620	-0.012985	-0.499844	-0.127237	11.854930	-59.278124	-23.658769
52022		0.856563	-0.013062	-0.499959	-0.127165	11.841319	-59.295734	-23.645072
52023		0.856483	-0.013134	-0.500113	-0.127090	11.831195	-59.318251	-23.634022
52024		0.856403	-0.013205	-0.500264	-0.127028	11.822612	-59.340160	-23.625490
52025		0.856325	-0.013276	-0.500417	-0.126944	11.811526	-59.362600	-23.612747
52026		0.856243	-0.013364	-0.500573	-0.126873	11.799122	-59.385677	-23.601078
52027		0.856157	-0.013444	-0.500738	-0.126790	11.787367	-59.409939	-23.588475
52028		0.856073	-0.013550	-0.500901	-0.126703	11.770261	-59.434560	-23.572184
52029		0.855978	-0.013629	-0.501079	-0.126630	11.760763	-59.460332	-23.562487
52030		0.855888	-0.013719	-0.501249	-0.126558	11.748739	-59.485284	-23.551323
52031		0.855796	-0.013787	-0.501425	-0.126477	11.740269	-59.510590	-23.541040
52032		0.855700	-0.013862	-0.501606	-0.126402	11.731616	-59.536542	-23.531581
52033		0.855602	-0.013928	-0.501793	-0.126314	11.723539	-59.563202	-23.520890
52034		0.855506	-0.013985	-0.501976	-0.126228	11.717138	-59.589186	-23.511412
52035		0.855406	-0.014052	-0.502164	-0.126148	11.709973	-59.615931	-23.502349
52036		0.855318	-0.014079	-0.502341	-0.126045	11.706590	-59.640482	-23.491879
52037		0.855219	-0.014092	-0.502526	-0.125974	11.710387	-59.665359	-23.490087
52038		0.855124	-0.014104	-0.502718	-0.125850	11.708797	-59.691725	-23.478286
52039		0.855037	-0.014124	-0.502886	-0.125773	11.709057	-59.714617	-23.473134
52040		0.854961	-0.014133	-0.503041	-0.125665	11.707130	-59.736065	-23.462212
52041		0.854901	-0.014139	-0.503161	-0.125591	11.706872	-59.752537	-23.455783
52042		0.854850	-0.014161	-0.503271	-0.125495	11.700287	-59.768400	-23.442504
52043		0.854806	-0.014184	-0.503360	-0.125433	11.695791	-59.781130	-23.434375
52044		0.854772	-0.014200	-0.503436	-0.125365	11.690773	-59.792120	-23.424626
52045		0.854742	-0.014233	-0.503498	-0.125312	11.683258	-59.801586	-23.415181
52046		0.854714	-0.014271	-0.503555	-0.125267	11.675456	-59.810520	-23.406547
52047		0.854677	-0.014338	-0.503624	-0.125238	11.664736	-59.821396	-23.398712
52048		0.854630	-0.014380	-0.503710	-0.125205	11.659533	-59.833971	-23.393919
52049		0.854580	-0.014440	-0.503798	-0.125190	11.653299	-59.846922	-23.391105
52050		0.854535	-0.014511	-0.503873	-0.125190	11.645330	-59.858327	-23.388857
52051		0.854496	-0.014599	-0.503932	-0.125203	11.634750	-59.868082	-23.386567
52052		0.854456	-0.014668	-0.503992	-0.125226	11.628877	-59.877210	-23.388143
52053		0.854413	-0.014774	-0.504052	-0.125267	11.617916	-59.887117	-23.389361
52054		0.854382	-0.014891	-0.504092	-0.125305	11.603093	-59.894744	-23.387323
52055		0.854346	-0.015031	-0.504130	-0.125379	11.587942	-59.902410	-23.389983
52056		0.854320	-0.015162	-0.504153	-0.125445	11.572191	-59.907882	-23.390746
52057		0.854285	-0.015284	-0.504194	-0.125508	11.559320	-59.915561	-23.393240
52058		0.854254	-0.015404	-0.504225	-0.125578	11.546919	-59.921726	-23.396750
52059		0.854223	-0.015546	-0.504254	-0.125659	11.531342	-59.928047	-23.399772
52060		0.854192	-0.015652	-0.504288	-0.125715	11.520177	-59.934519	-23.402133
52061		0.854162	-0.015765	-0.504319	-0.125785	11.508906	-59.940463	-23.406136
52062		0.854113	-0.015904	-0.504374	-0.125875	11.497026	-59.949990	-23.413281
52063		0.854076	-0.016047	-0.504417	-0.125937	11.480091	-59.958458	-23.413458
52064		0.854037	-0.016151	-0.504471	-0.125975	11.468760	-59.967603	-23.413856
52065		0.854000	-0.016266	-0.504516	-0.126027	11.456130	-59.975692	-23.415016
52066		0.853969	-0.016366	-0.504556	-0.126062	11.444386	-59.982963	-23.414467
52067		0.853939	-0.016465	-0.504593	-0.126109	11.433625	-59.989711	-23.415849
52068		0.853908	-0.016556	-0.504634	-0.126140	11.422931	-59.996917	-23.415194
52069		0.853877	-0.016610	-0.504676	-0.126173	11.419730	-60.003374	-23.419099
52070		0.853857	-0.016679	-0.504706	-0.126184	11.410119	-60.008807	-23.416193
52071		0.853829	-0.016750	-0.504743	-0.126212	11.402707	-60.015091	-23.416881
52072		0.853801	-0.016791	-0.504793	-0.126199	11.397038	-60.022713	-23.413425
52073		0.853766	-0.016822	-0.504855	-0.126182	11.394064	-60.031631	-23.411356
52074		0.853731	-0.016855	-0.504915	-0.126176	11.391597	-60.040234	-23.410975
52075		0.853692	-0.016919	-0.504980	-0.126167	11.383491	-60.050406	-23.407132
52076		0.853664	-0.016966	-0.505027	-0.126163	11.377548	-60.057595	-23.404703
52077		0.853635	-0.017062	-0.505070	-0.126179	11.364292	-60.065447	-23.400619
52078		0.853592	-0.017100	-0.505141	-0.126176	11.362307	-60.075626	-23.401315
52079		0.853551	-0.017181	-0.505206	-0.126186	11.352862	-60.085876	-23.399290
52080		0.853508	-0.017300	-0.505268	-0.126210	11.337774	-60.096620	-23.395893
52081		0.853450	-0.017371	-0.505361	-0.126220	11.332294	-60.110223	-23.396842
52082		0.853398	-0.017412	-0.505451	-0.126205	11.329838	-60.122939	-23.396231
52083		0.853355	-0.017455	-0.505529	-0.126178	11.324405	-60.134471	-23.391820
52084		0.853297	-0.017533	-0.505624	-0.126179	11.316945	-60.148683	-23.390696
52085		0.853228	-0.017636	-0.505743	-0.126154	11.303415	-60.166863	-23.383224
52086		0.853143	-0.017776	-0.505878	-0.126167	11.288520	-60.187593	-23.380582
52087		0.853058	-0.017873	-0.506028	-0.126129	11.277158	-60.209916	-23.373602
52088		0.852965	-0.017957	-0.506192	-0.126090	11.269114	-60.233452	-23.368609
52089		0.852854	-0.018025	-0.506386	-0.126049	11.266355	-60.260664	-23.367445
52090		0.852739	-0.018093	-0.506587	-0.126014	11.264454	-60.288490	-23.367541
52091		0.852632	-0.018150	-0.506778	-0.125957	11.261785	-60.315148	-23.364136
52092		0.852531	-0.018173	-0.506969	-0.125865	11.261456	-60.341373	-23.357249
52093		0.852431	-0.018185	-0.507155	-0.125794	11.265013	-60.366309	-23.355113
52094		0.852340	-0.018212	-0.507336	-0.125677	11.260498	-60.391737	-23.342270
52095		0.852259	-0.018216	-0.507495	-0.125587	11.261371	-60.413243	-23.335280
52096		0.852179	-0.018218	-0.507653	-0.125491	11.261980	-60.434743	-23.327352
52097		0.852103	-0.018217	-0.507804	-0.125396	11.262685	-60.455296	-23.319430
52098		0.852043	-0.018200	-0.507932	-0.125282	11.262760	-60.472687	-23.307986
52099		0.851988	-0.018169	-0.508055	-0.125169	11.264878	-60.489029	-23.297557
52100		0.851931	-0.018148	-0.508179	-0.125051	11.264823	-60.505890	-23.285260
52101		0.851873	-0.018093	-0.508299	-0.124966	11.274819	-60.520843	-23.283078
52102		0.851816	-0.018069	-0.508427	-0.124843	11.274975	-60.538193	-23.270356
52103		0.851768	-0.018036	-0.508534	-0.124740	11.277496	-60.552317	-23.261085
52104		0.851720	-0.018014	-0.508639	-0.124636	11.277790	-60.566589	-23.250395
52105		0.851670	-0.018014	-0.508748	-0.124533	11.274124	-60.581882	-23.237565
52106		0.851631	-0.018015	-0.508837	-0.124436	11.269484	-60.594531	-23.224547
52107		0.851599	-0.018021	-0.508914	-0.124345	11.263606	-60.605675	-23.211182
52108		0.851566	-0.018043	-0.508982	-0.124287	11.257894	-60.615779	-23.202072
52109		0.851542	-0.018050	-0.509046	-0.124186	11.249624	-60.625396	-23.185671
52110		0.851515	-0.018009	-0.509117	-0.124090	11.251703	-60.634620	-23.175976
52111		0.851479	-0.017981	-0.509201	-0.123993	11.252390	-60.645958	-23.165742
52112		0.851456	-0.018047	-0.509245	-0.123962	11.239248	-60.653675	-23.155404
52113		0.851434	-0.018121	-0.509292	-0.123910	11.222554	-60.662377	-23.140289
52114		0.851414	-0.018187	-0.509340	-0.123838	11.204968	-60.671175	-23.121954
52115		0.851397	-0.018238	-0.509383	-0.123770	11.190406	-60.678928	-23.105773
52116		0.851398	-0.018312	-0.509389	-0.123731	11.172044	-60.682217	-23.090232
52117		0.851382	-0.018380	-0.509429	-0.123666	11.154169	-60.689868	-23.072453
52118		0.851363	-0.018446	-0.509463	-0.123646	11.141707	-60.696334	-23.063694
52119		0.851362	-0.018532	-0.509472	-0.123601	11.120564	-60.700300	-23.045926
52120		0.851363	-0.018606	-0.509478	-0.123556	11.101277	-60.703595	-23.029008
52121		0.851357	-0.018676	-0.509494	-0.123525	11.085408	-60.707830	-23.016241
52122		0.851358	-0.018750	-0.509498	-0.123490	11.066982	-60.710777	-23.001044
52123		0.851359	-0.018828	-0.509498	-0.123469	11.049482	-60.713168	-22.988287
52124		0.851361	-0.018898	-0.509502	-0.123431	11.031841	-60.715883	-22.973243
52125		0.851363	-0.018986	-0.509502	-0.123402	11.011273	-60.718567	-22.957572
52126		0.851368	-0.019080	-0.509502	-0.123356	10.987572	-60.721655	-22.937838
52127		0.851373	-0.019178	-0.509489	-0.123353	10.967365	-60.722671	-22.925610
52128		0.851386	-0.019283	-0.509467	-0.123340	10.943683	-60.722757	-22.909679
52129		0.851406	-0.019391	-0.509428	-0.123346	10.920479	-60.720482	-22.896173
52130		0.851419	-0.019496	-0.509408	-0.123330	10.896649	-60.720815	-22.879804
52131		0.851436	-0.019608	-0.509374	-0.123333	10.872605	-60.719406	-22.865494
52132		0.851449	-0.019703	-0.509351	-0.123320	10.850973	-60.719087	-22.850744
52133		0.851460	-0.019785	-0.509331	-0.123313	10.832688	-60.718748	-22.838800
52134		0.851465	-0.019879	-0.509322	-0.123301	10.812398	-60.720251	-22.825340
52135		0.851476	-0.019947	-0.509299	-0.123314	10.799015	-60.718837	-22.818828
52136		0.851484	-0.020031	-0.509285	-0.123298	10.779741	-60.719461	-22.805186
52137		0.851498	-0.020119	-0.509260	-0.123294	10.760229	-60.718629	-22.792852
52138		0.851505	-0.020200	-0.509247	-0.123280	10.741973	-60.719267	-22.780147
52139		0.851517	-0.020278	-0.509223	-0.123284	10.725528	-60.718142	-22.770725
52140		0.851528	-0.020349	-0.509202	-0.123284	10.710135	-60.717244	-22.761318
52141		0.851530	-0.020408	-0.509195	-0.123296	10.699352	-60.717759	-22.756486
52142		0.851529	-0.020458	-0.509189	-0.123315	10.691488	-60.718179	-22.754440
52143		0.851525	-0.020516	-0.509193	-0.123319	10.681082	-60.720048	-22.749183
52144		0.851519	-0.020559	-0.509198	-0.123325	10.673745	-60.721826	-22.745951
52145		0.851516	-0.020613	-0.509198	-0.123341	10.665178	-60.722917	-22.743217
52146		0.851523	-0.020667	-0.509180	-0.123361	10.655776	-60.721805	-22.740047
52147		0.851520	-0.020727	-0.509176	-0.123388	10.646976	-60.722503	-22.738639
52148		0.851516	-0.020781	-0.509176	-0.123403	10.638277	-60.723798	-22.735733
52149		0.851514	-0.020820	-0.509171	-0.123431	10.633625	-60.723732	-22.736724
52150		0.851515	-0.020879	-0.509165	-0.123440	10.622745	-60.724444	-22.731455
52151		0.851514	-0.020914	-0.509155	-0.123480	10.619935	-60.723602	-22.734973
52152		0.851511	-0.020947	-0.509151	-0.123514	10.617151	-60.723423	-22.737921
52153		0.851503	-0.020974	-0.509156	-0.123544	10.615941	-60.724423	-22.741399
52154		0.851494	-0.020975	-0.509167	-0.123558	10.618132	-60.725716	-22.744884
52155		0.851487	-0.020984	-0.509175	-0.123576	10.619230	-60.726727	-22.748235
52156		0.851479	-0.020973	-0.509185	-0.123589	10.623539	-60.727640	-22.752718
52157		0.851474	-0.020946	-0.509187	-0.123620	10.632702	-60.726729	-22.762195
52158		0.851459	-0.020929	-0.509210	-0.123634	10.639307	-60.729040	-22.768467
52159		0.851450	-0.020903	-0.509224	-0.123638	10.646013	-60.730166	-22.773278
52160		0.851441	-0.020876	-0.509236	-0.123657	10.654332	-60.730720	-22.780890
52161		0.851428	-0.020843	-0.509257	-0.123666	10.663257	-60.732423	-22.787804
52162		0.851424	-0.020797	-0.509270	-0.123647	10.671073	-60.733171	-22.790083
52163		0.851415	-0.020770	-0.509285	-0.123651	10.677781	-60.734296	-22.794895
52164		0.851407	-0.020732	-0.509300	-0.123651	10.686463	-60.735226	-22.800330
52165		0.851392	-0.020686	-0.509329	-0.123646	10.696850	-60.737808	-22.806305
52166		0.851387	-0.020629	-0.509344	-0.123626	10.706783	-60.738605	-22.809798
52167		0.851381	-0.020581	-0.509356	-0.123623	10.716647	-60.738872	-22.815295
52168		0.851379	-0.020529	-0.509367	-0.123604	10.725322	-60.739110	-22.817953
52169		0.851372	-0.020474	-0.509383	-0.123597	10.736413	-60.739863	-22.823837
52170		0.851369	-0.020415	-0.509393	-0.123584	10.747104	-60.739782	-22.828530
52171		0.851361	-0.020371	-0.509410	-0.123577	10.756122	-60.740918	-22.833215
52172		0.851347	-0.020338	-0.509435	-0.123574	10.764084	-60.743217	-22.838018
52173		0.851336	-0.020305	-0.509454	-0.123575	10.772024	-60.744827	-22.843220
52174		0.851317	-0.020271	-0.509487	-0.123576	10.781264	-60.748147	-22.849647
52175		0.851298	-0.020251	-0.509523	-0.123566	10.786665	-60.752363	-22.852421
52176		0.851269	-0.020209	-0.509576	-0.123548	10.796684	-60.758302	-22.857163
52177		0.851239	-0.020171	-0.509629	-0.123544	10.807761	-60.764158	-22.864537
52178		0.851218	-0.020123	-0.509669	-0.123529	10.818306	-60.768217	-22.869700
52179		0.851187	-0.020095	-0.509723	-0.123525	10.827315	-60.774455	-22.875881
52180		0.851154	-0.020034	-0.509783	-0.123516	10.842677	-60.780630	-22.885081
52181		0.851118	-0.020015	-0.509848	-0.123504	10.850000	-60.788607	-22.889648
52182		0.851094	-0.019971	-0.509884	-0.123529	10.864219	-60.791706	-22.902091
52183		0.851060	-0.019954	-0.509940	-0.123533	10.872163	-60.798418	-22.908802
52184		0.851032	-0.019929	-0.509985	-0.123541	10.881550	-60.803489	-22.916596
52185		0.851004	-0.019911	-0.510027	-0.123563	10.890959	-60.808065	-22.926259
52186		0.850986	-0.019892	-0.510052	-0.123588	10.899467	-60.810389	-22.935192
52187		0.850967	-0.019892	-0.510077	-0.123613	10.904193	-60.813418	-22.941968
52188		0.850946	-0.019910	-0.510103	-0.123653	10.907409	-60.816647	-22.949983
52189		0.850917	-0.019889	-0.510142	-0.123695	10.919669	-60.820532	-22.963899
52190		0.850891	-0.019883	-0.510181	-0.123713	10.925786	-60.825201	-22.970880
52191		0.850861	-0.019925	-0.510212	-0.123781	10.928051	-60.829347	-22.982266
52192		0.850820	-0.019955	-0.510265	-0.123845	10.933949	-60.836116	-22.995941
52193		0.850777	-0.019944	-0.510331	-0.123870	10.944074	-60.843964	-23.007027
52194		0.850742	-0.019930	-0.510386	-0.123884	10.952715	-60.850461	-23.015449
52195		0.850700	-0.019954	-0.510445	-0.123923	10.957230	-60.858198	-23.025077
52196		0.850654	-0.020024	-0.510509	-0.123963	10.953227	-60.867686	-23.030096
52197		0.850608	-0.020074	-0.510575	-0.123998	10.952746	-60.877063	-23.036516
52198		0.850559	-0.020119	-0.510644	-0.124047	10.955182	-60.886454	-23.046648
52199		0.850516	-0.020147	-0.510708	-0.124075	10.957862	-60.894971	-23.053755
52200		0.850463	-0.020144	-0.510793	-0.124086	10.966434	-60.905633	-23.062682
52201		0.850407	-0.020147	-0.510878	-0.124116	10.976064	-60.916270	-23.074818
52202		0.850354	-0.020153	-0.510959	-0.124153	10.985333	-60.926293	-23.087417
52203		0.850320	-0.020151	-0.511008	-0.124179	10.992880	-60.932208	-23.096844
52204		0.850282	-0.020157	-0.511064	-0.124208	10.999355	-60.939237	-23.106040
52205		0.850250	-0.020165	-0.511113	-0.124226	11.003823	-60.945448	-23.112543
52206		0.850222	-0.020215	-0.511147	-0.124272	11.002048	-60.950459	-23.118704
52207		0.850190	-0.020237	-0.511189	-0.124313	11.006058	-60.955880	-23.127868
52208		0.850163	-0.020262	-0.511230	-0.124327	11.005964	-60.961646	-23.130917
52209		0.850137	-0.020289	-0.511264	-0.124356	11.006731	-60.966404	-23.136238
52210		0.850119	-0.020299	-0.511290	-0.124367	11.008283	-60.969878	-23.139437
52211		0.850102	-0.020310	-0.511316	-0.124383	11.009968	-60.973199	-23.143325
52212		0.850085	-0.020305	-0.511337	-0.124407	11.015433	-60.975506	-23.150394
52213		0.850069	-0.020341	-0.511355	-0.124438	11.013571	-60.978334	-23.154010
52214		0.850048	-0.020350	-0.511381	-0.124473	11.017886	-60.981518	-23.161977
52215		0.850036	-0.020392	-0.511393	-0.124499	11.013782	-60.983773	-23.163471
52216		0.850023	-0.020439	-0.511409	-0.124513	11.007533	-60.986933	-23.162374
52217		0.850017	-0.020483	-0.511410	-0.124546	11.003038	-60.987833	-23.164281
52218		0.850015	-0.020544	-0.511406	-0.124565	10.993073	-60.988680	-23.161086
52219		0.850012	-0.020587	-0.511405	-0.124582	10.986564	-60.989401	-23.159539
52220		0.850022	-0.020613	-0.511388	-0.124578	10.979675	-60.987945	-23.154555
52221		0.850022	-0.020522	-0.511405	-0.124524	10.992445	-60.988425	-23.155085
52222		0.850009	-0.020466	-0.511439	-0.124484	11.001123	-60.991834	-23.155652
52223		0.850003	-0.020485	-0.511446	-0.124494	10.999170	-60.993137	-23.156107
52224		0.850004	-0.020487	-0.511452	-0.124462	10.995352	-60.994328	-23.149682
52225		0.849987	-0.020474	-0.511493	-0.124412	10.995093	-60.999920	-23.143985
52226		0.849982	-0.020446	-0.511521	-0.124335	10.993570	-61.003715	-23.133482
52227		0.849975	-0.020431	-0.511545	-0.124287	10.992760	-61.006991	-23.127281
52228		0.849966	-0.020413	-0.511573	-0.124232	10.991968	-61.010904	-23.120233
52229		0.849953	-0.020392	-0.511615	-0.124154	10.989916	-61.016712	-23.109742
52230		0.849941	-0.020366	-0.511656	-0.124075	10.988638	-61.022260	-23.099474
52231		0.849938	-0.020294	-0.511682	-0.123997	10.995613	-61.024696	-23.093713
52232		0.849933	-0.020245	-0.511711	-0.123921	10.998256	-61.028147	-23.085743
52233		0.849929	-0.020183	-0.511738	-0.123843	11.003144	-61.030970	-23.078769
52234		0.849938	-0.020118	-0.511747	-0.123757	11.006226	-61.031498	-23.069182
52235		0.849935	-0.020045	-0.511773	-0.123679	11.013199	-61.033939	-23.063414
52236		0.849944	-0.019938	-0.511780	-0.123603	11.025602	-61.032995	-23.060401
52237		0.849951	-0.019835	-0.511793	-0.123525	11.037437	-61.032838	-23.056947
52238		0.849951	-0.019723	-0.511816	-0.123445	11.051537	-61.033922	-23.054968
52239		0.849947	-0.019629	-0.511842	-0.123376	11.063691	-61.035689	-23.053342
52240		0.849947	-0.019529	-0.511862	-0.123313	11.077403	-61.036342	-23.053267
52241		0.849939	-0.019415	-0.511901	-0.123226	11.092258	-61.039480	-23.051095
52242		0.849939	-0.019297	-0.511925	-0.123144	11.107448	-61.040543	-23.049449
52243		0.849940	-0.019152	-0.511950	-0.123056	11.127163	-61.041085	-23.049585
52244		0.849932	-0.018987	-0.511990	-0.122971	11.152419	-61.042967	-23.053732
52245		0.849927	-0.018833	-0.512029	-0.122865	11.172751	-61.045268	-23.052112
52246		0.849930	-0.018646	-0.512048	-0.122794	11.202416	-61.043700	-23.060081
52247		0.849943	-0.018449	-0.512056	-0.122697	11.230145	-61.040793	-23.063191
52248		0.849962	-0.018239	-0.512055	-0.122601	11.259529	-61.036324	-23.066982
52249		0.849987	-0.018017	-0.512044	-0.122508	11.290861	-61.030337	-23.071976
52250		0.850015	-0.017773	-0.512031	-0.122404	11.325135	-61.023606	-23.077142
52251		0.850050	-0.017514	-0.512008	-0.122290	11.360514	-61.015339	-23.081331
52252		0.850082	-0.017227	-0.511996	-0.122164	11.400370	-61.007823	-23.086665
52253		0.850119	-0.016914	-0.511981	-0.122016	11.442656	-60.999611	-23.090410
52254		0.850149	-0.016560	-0.511984	-0.121838	11.490888	-60.993003	-23.094026
52255		0.850198	-0.016238	-0.511963	-0.121629	11.527329	-60.984697	-23.086006
52256		0.850266	-0.015908	-0.511912	-0.121410	11.561660	-60.972339	-23.074470
52257		0.850364	-0.015563	-0.511826	-0.121135	11.589399	-60.955972	-23.050476
52258		0.850476	-0.015234	-0.511716	-0.120850	11.610964	-60.937149	-23.020885
52259		0.850605	-0.014893	-0.511588	-0.120529	11.629469	-60.916072	-22.984247
52260		0.850729	-0.014565	-0.511467	-0.120201	11.645024	-60.896475	-22.945066
52261		0.850861	-0.014219	-0.511344	-0.119840	11.659936	-60.876467	-22.901082
52262		0.850982	-0.013898	-0.511234	-0.119484	11.671809	-60.858831	-22.856440
52263		0.851093	-0.013533	-0.511150	-0.119095	11.690405	-60.843928	-22.811973
52264		0.851191	-0.013177	-0.511090	-0.118694	11.707540	-60.832354	-22.765721
52265		0.851288	-0.012818	-0.511029	-0.118298	11.725871	-60.820690	-22.720925
52266		0.851370	-0.012470	-0.510992	-0.117898	11.743728	-60.812416	-22.675994
52267		0.851442	-0.012110	-0.510973	-0.117502	11.765405	-60.806006	-22.634282
52268		0.851517	-0.011772	-0.510947	-0.117108	11.782667	-60.799330	-22.590102
52269		0.851587	-0.011434	-0.510918	-0.116754	11.804657	-60.791830	-22.554089
52270		0.851660	-0.011113	-0.510875	-0.116438	11.826658	-60.782425	-22.522712
52271		0.851741	-0.010792	-0.510820	-0.116122	11.847414	-60.771427	-22.490176
52272		0.851827	-0.010477	-0.510748	-0.115833	11.869294	-60.758057	-22.461562
52273		0.851903	-0.010178	-0.510686	-0.115576	11.892356	-60.746112	-22.438192
52274		0.851983	-0.009890	-0.510616	-0.115319	11.912889	-60.733314	-22.413239
52275		0.852060	-0.009605	-0.510547	-0.115077	11.934493	-60.720496	-22.390797
52276		0.852123	-0.009334	-0.510497	-0.114855	11.957359	-60.710269	-22.372421
52277		0.852181	-0.009078	-0.510446	-0.114675	11.981956	-60.699745	-22.360583
52278		0.852236	-0.008828	-0.510405	-0.114466	12.002846	-60.690966	-22.343083
52279		0.852278	-0.008608	-0.510377	-0.114299	12.023777	-60.684062	-22.331647
52280		0.852322	-0.008408	-0.510340	-0.114147	12.042021	-60.676407	-22.320501
52281		0.852354	-0.008205	-0.510322	-0.114001	12.063029	-60.671002	-22.312243
52282		0.852385	-0.008020	-0.510307	-0.113848	12.079930	-60.666525	-22.300886
52283		0.852409	-0.007854	-0.510300	-0.113714	12.095896	-60.663284	-22.291746
52284		0.852426	-0.007680	-0.510307	-0.113570	12.113460	-60.661721	-22.282563
52285		0.852431	-0.007537	-0.510331	-0.113435	12.127227	-60.662992	-22.272886
52286		0.852428	-0.007428	-0.510362	-0.113323	12.137753	-60.665841	-22.264788
52287		0.852410	-0.007305	-0.510417	-0.113223	12.154138	-60.671071	-22.262265
52288		0.852385	-0.007218	-0.510480	-0.113132	12.165326	-60.678221	-22.258330
52289		0.852355	-0.007112	-0.510556	-0.113018	12.178365	-60.686932	-22.252629
52290		0.852326	-0.007006	-0.510631	-0.112903	12.191407	-60.695460	-22.246928
52291		0.852287	-0.006916	-0.510718	-0.112809	12.204535	-60.705656	-22.244434
52292		0.852253	-0.006817	-0.510802	-0.112693	12.216745	-60.715530	-22.238284
52293		0.852205	-0.006705	-0.510911	-0.112565	12.231955	-60.728424	-22.233053
52294		0.852169	-0.006594	-0.510998	-0.112454	12.247170	-60.738327	-22.229312
52295		0.852114	-0.006463	-0.511121	-0.112315	12.266070	-60.752716	-22.225215
52296		0.852068	-0.006301	-0.511237	-0.112149	12.286943	-60.765808	-22.218277
52297		0.852031	-0.006116	-0.511339	-0.111977	12.310802	-60.776583	-22.211827
52298		0.851999	-0.005927	-0.511434	-0.111794	12.333490	-60.786606	-22.202991
52299		0.851971	-0.005732	-0.511532	-0.111568	12.352581	-60.797425	-22.186533
52300		0.851944	-0.005563	-0.511626	-0.111349	12.367121	-60.808293	-22.168162
52301		0.851926	-0.005401	-0.511712	-0.111106	12.376603	-60.818651	-22.143380
52302		0.851909	-0.005248	-0.511795	-0.110857	12.383722	-60.829023	-22.116467
52303		0.851893	-0.005075	-0.511888	-0.110561	12.389790	-60.840875	-22.082946
52304		0.851891	-0.004935	-0.511958	-0.110256	12.386726	-60.850709	-22.042198
52305		0.851877	-0.004766	-0.512063	-0.109887	12.384432	-60.865145	-21.994460
52306		0.851859	-0.004640	-0.512170	-0.109525	12.374622	-60.880947	-21.943337
52307		0.851845	-0.004511	-0.512282	-0.109116	12.360323	-60.897939	-21.883415
52308		0.851840	-0.004369	-0.512388	-0.108665	12.343059	-60.914467	-21.816027
52309		0.851824	-0.004215	-0.512516	-0.108188	12.326683	-60.933873	-21.746239
52310		0.851815	-0.004064	-0.512633	-0.107710	12.308758	-60.951995	-21.675043
52311		0.851815	-0.003907	-0.512750	-0.107166	12.284188	-60.970787	-21.591162
52312		0.851826	-0.003734	-0.512853	-0.106586	12.257280	-60.988132	-21.500772
52313		0.851854	-0.003509	-0.512939	-0.105958	12.233590	-61.002509	-21.405089
52314		0.851880	-0.003236	-0.513040	-0.105259	12.212010	-61.018800	-21.301593
52315		0.851919	-0.002940	-0.513130	-0.104513	12.188429	-61.033690	-21.190170
52316		0.851963	-0.002612	-0.513215	-0.103743	12.168005	-61.047594	-21.077289
52317		0.852016	-0.002244	-0.513306	-0.102861	12.142474	-61.062869	-20.946543
52318		0.852068	-0.001913	-0.513389	-0.102017	12.113649	-61.077617	-20.818889
52319		0.852139	-0.001465	-0.513472	-0.101015	12.088876	-61.091663	-20.672104
52320		0.852203	-0.001016	-0.513566	-0.099994	12.063004	-61.107488	-20.522577
52321		0.852277	-0.000455	-0.513673	-0.098808	12.040437	-61.124843	-20.353102
52322		0.852337	0.000138	-0.513810	-0.097574	12.020566	-61.145891	-20.179657
52323		0.852399	0.000844	-0.513976	-0.096140	12.001493	-61.171162	-19.980609
52324		0.852441	0.001577	-0.514185	-0.094635	11.982217	-61.202294	-19.773095
52325		0.852509	0.002403	-0.514377	-0.092947	11.958106	-61.231966	-19.537739
52326		0.852554	0.003251	-0.514619	-0.091151	11.929012	-61.269297	-19.286420
52327		0.852616	0.004219	-0.514857	-0.089163	11.900369	-61.306237	-19.009345
52328		0.852667	0.005221	-0.515122	-0.087067	11.867103	-61.347796	-18.715865
52329		0.852729	0.006344	-0.515391	-0.084764	11.833224	-61.390364	-18.394404
52330		0.852778	0.007496	-0.515684	-0.082359	11.794356	-61.437218	-18.056895
52331		0.852819	0.008778	-0.516008	-0.079739	11.757254	-61.488646	-17.692455
52332		0.852831	0.010086	-0.516371	-0.077053	11.719916	-61.546172	-17.320059
52333		0.852843	0.011549	-0.516750	-0.074128	11.685170	-61.606372	-16.917382
52334		0.852779	0.013132	-0.517244	-0.071092	11.668479	-61.681355	-16.513483
52335		0.852697	0.014774	-0.517760	-0.067921	11.647847	-61.760666	-16.089555
52336		0.852567	0.016402	-0.518338	-0.064702	11.622023	-61.849752	-15.657634
52337		0.852390	0.018196	-0.518986	-0.061274	11.607733	-61.948654	-15.206125
52338		0.852161	0.020023	-0.519690	-0.057819	11.599215	-62.055696	-14.755578
52339		0.851921	0.021988	-0.520395	-0.054181	11.595379	-62.164089	-14.283074
52340		0.851658	0.023954	-0.521102	-0.050574	11.594690	-62.273514	-13.816506
52341		0.851395	0.026087	-0.521780	-0.046810	11.606067	-62.379791	-13.335274
52342		0.851144	0.028191	-0.522401	-0.043095	11.613167	-62.479617	-12.856531
52343		0.850924	0.030404	-0.522937	-0.039253	11.621166	-62.569815	-12.359258
52344		0.850745	0.032606	-0.523366	-0.035477	11.628139	-62.646395	-11.867552
52345		0.850621	0.034848	-0.523668	-0.031648	11.629542	-62.707847	-11.362686
52346		0.850567	0.037050	-0.523818	-0.027890	11.622683	-62.750132	-10.858970
52347		0.850578	0.039262	-0.523827	-0.024085	11.604499	-62.775528	-10.339101
52348		0.850657	0.041407	-0.523692	-0.020347	11.573464	-62.782916	-9.817654
52349		0.850814	0.043590	-0.523394	-0.016587	11.540078	-62.769759	-9.288628
52350		0.851015	0.045677	-0.522992	-0.012918	11.493691	-62.743824	-8.762126
52351		0.851269	0.047814	-0.522465	-0.009216	11.449387	-62.702328	-8.230555
52352		0.851560	0.049879	-0.521848	-0.005656	11.405125	-62.648653	-7.716628
52353		0.851878	0.052028	-0.521146	-0.002071	11.373634	-62.584311	-7.206129
52354		0.852217	0.054162	-0.520375	0.001353	11.358162	-62.510109	-6.726030
52355		0.852583	0.056415	-0.519516	0.004772	11.367020	-62.424286	-6.260414
52356		0.852969	0.058739	-0.518582	0.008084	11.403316	-62.327817	-5.824686
52357		0.853378	0.061247	-0.517557	0.011418	11.474030	-62.219690	-5.405868
52358		0.853755	0.063871	-0.516532	0.014743	11.572214	-62.112394	-5.005209
52359		0.854090	0.066710	-0.515510	0.018148	11.707615	-62.007005	-4.616741
52360		0.854319	0.069636	-0.514612	0.021556	11.866999	-61.919549	-4.244619
52361		0.854455	0.072737	-0.513796	0.025115	12.048650	-61.846129	-3.867430
52362		0.854533	0.075870	-0.513027	0.028634	12.244795	-61.780441	-3.505154
52363		0.854607	0.079069	-0.512208	0.032210	12.447257	-61.710875	-3.138301
52364		0.854713	0.082310	-0.511291	0.035677	12.669451	-61.628688	-2.796292
52365		0.854844	0.085712	-0.510255	0.039193	12.916261	-61.533304	-2.460385
52366		0.854967	0.089186	-0.509175	0.042649	13.184969	-61.433477	-2.144707
52367		0.855058	0.092796	-0.508066	0.046194	13.471176	-61.333204	-1.827241
52368		0.855077	0.096397	-0.507033	0.049688	13.765263	-61.244917	-1.522252
52369		0.855002	0.100058	-0.506084	0.053284	14.063066	-61.171630	-1.207242
52370		0.854835	0.103654	-0.505258	0.056815	14.360410	-61.116323	-0.902602
52371		0.854567	0.107235	-0.504543	0.060438	14.648194	-61.079730	-0.582160
52372		0.854226	0.110707	-0.503926	0.064031	14.921063	-61.058184	-0.258401
52373		0.853822	0.114175	-0.503365	0.067650	15.192694	-61.046838	0.068456
52374		0.853374	0.117498	-0.502866	0.071224	15.442590	-61.045285	0.401246
52375		0.852896	0.120848	-0.502351	0.074893	15.687077	-61.045729	0.749954
52376		0.852394	0.124148	-0.501835	0.078570	15.921272	-61.048666	1.105816
52377		0.851870	0.127465	-0.501295	0.082303	16.152424	-61.051818	1.471353
52378		0.851329	0.130797	-0.500720	0.086085	16.380705	-61.053704	1.845675
52379		0.850779	0.134132	-0.500099	0.089917	16.603297	-61.053082	2.230763
52380		0.850222	0.137447	-0.499429	0.093814	16.813460	-61.049711	2.632805
52381		0.849664	0.140767	-0.498700	0.097740	17.020535	-61.041735	3.041612
52382		0.849084	0.144054	-0.497949	0.101741	17.212313	-61.034774	3.469901
52383		0.848495	0.147365	-0.497145	0.105771	17.405197	-61.024065	3.902220
52384		0.847881	0.150643	-0.496327	0.109838	17.587578	-61.014862	4.346145
52385		0.847241	0.153888	-0.495497	0.113943	17.759374	-61.007195	4.801703
52386		0.846562	0.157074	-0.494705	0.118012	17.925159	-61.006029	5.255434
52387		0.845827	0.160260	-0.493925	0.122191	18.079251	-61.011345	5.730611
52388		0.845027	0.163369	-0.493236	0.126325	18.225539	-61.029675	6.203266
52389		0.844161	0.166470	-0.492576	0.130572	18.358170	-61.056691	6.698530
