// General information: 
//  MT Manager version: 2022.2.0 
//  XDA version: 2022.2.0 build 7381 rev 124627 built on 2023-07-19
// Device information: 
//  DeviceId: 10B4151C
//  ProductCode: MTW2-3A7G6
//  Firmware Version: 4.14.0
//  Hardware Version: 3.0.0
// Device settings: 
//  Filter Profile: human(46.1)
//  Option Flags: Orientation Smoother Disabled, Position/Velocity Smoother Disabled, Continuous Zero Rotation Update Disabled, AHS Disabled, ICC Disabled
// Coordinate system: ENU
PacketCounter	SampleTimeFine	Quat_q0	Quat_q1	Quat_q2	Quat_q3	Roll	Pitch	Yaw
34038		0.611319	-0.360085	-0.552493	-0.437469	18.336145	-82.117464	-87.181406
34039		0.611376	-0.360076	-0.552485	-0.437407	18.290127	-82.117598	-87.128395
34040		0.611401	-0.360102	-0.552458	-0.437384	18.247597	-82.118261	-87.086162
34041		0.611419	-0.360155	-0.552432	-0.437349	18.195147	-82.121811	-87.035255
34042		0.611397	-0.360258	-0.552379	-0.437361	18.142455	-82.126092	-86.993722
34043		0.611392	-0.360345	-0.552333	-0.437354	18.085955	-82.130098	-86.944886
34044		0.611384	-0.360391	-0.552310	-0.437357	18.060874	-82.132150	-86.924514
34045		0.611406	-0.360412	-0.552317	-0.437300	18.027438	-82.136477	-86.887323
34046		0.611469	-0.360406	-0.552329	-0.437204	17.976369	-82.139703	-86.826014
34047		0.611544	-0.360380	-0.552348	-0.437095	17.927122	-82.142317	-86.763418
34048		0.611595	-0.360386	-0.552339	-0.437029	17.875931	-82.143909	-86.706276
34049		0.611622	-0.360417	-0.552320	-0.436990	17.829257	-82.146135	-86.658617
34050		0.611633	-0.360485	-0.552268	-0.436986	17.770541	-82.147676	-86.606153
34051		0.611652	-0.360561	-0.552207	-0.436972	17.697350	-82.149448	-86.538994
34052		0.611666	-0.360635	-0.552139	-0.436978	17.630633	-82.149698	-86.480129
34053		0.611682	-0.360707	-0.552082	-0.436968	17.563553	-82.151216	-86.419111
34054		0.611708	-0.360746	-0.552047	-0.436944	17.510968	-82.152277	-86.367956
34055		0.611768	-0.360738	-0.552050	-0.436863	17.463078	-82.154087	-86.311180
34056		0.611793	-0.360742	-0.552070	-0.436800	17.439196	-82.158106	-86.281295
34057		0.611847	-0.360698	-0.552110	-0.436710	17.422190	-82.160337	-86.251043
34058		0.611876	-0.360685	-0.552121	-0.436665	17.405077	-82.161503	-86.228260
34059		0.611884	-0.360683	-0.552138	-0.436634	17.400344	-82.163785	-86.219994
34060		0.611883	-0.360730	-0.552126	-0.436612	17.368595	-82.167651	-86.190564
34061		0.611860	-0.360745	-0.552160	-0.436588	17.381303	-82.173046	-86.202189
34062		0.611833	-0.360785	-0.552142	-0.436616	17.377491	-82.174220	-86.204964
34063		0.611840	-0.360763	-0.552159	-0.436604	17.387910	-82.174130	-86.212070
34064		0.611842	-0.360742	-0.552178	-0.436594	17.400987	-82.174255	-86.222078
34065		0.611854	-0.360700	-0.552214	-0.436567	17.421558	-82.174508	-86.235810
34066		0.611907	-0.360608	-0.552276	-0.436490	17.439431	-82.173977	-86.237191
34067		0.611910	-0.360560	-0.552290	-0.436506	17.469468	-82.170441	-86.264219
34068		0.611821	-0.360618	-0.552272	-0.436606	17.510028	-82.171301	-86.320291
34069		0.611777	-0.360577	-0.552313	-0.436652	17.581699	-82.170010	-86.392401
34070		0.611744	-0.360536	-0.552381	-0.436644	17.643518	-82.172912	-86.449348
34071		0.611692	-0.360489	-0.552465	-0.436650	17.728394	-82.176305	-86.529931
34072		0.611740	-0.360316	-0.552606	-0.436547	17.811014	-82.176437	-86.585475
34073		0.611777	-0.360161	-0.552732	-0.436464	17.890728	-82.176252	-86.641775
34074		0.611864	-0.360000	-0.552828	-0.436354	17.927139	-82.173427	-86.651615
34075		0.611946	-0.359842	-0.552880	-0.436302	17.961177	-82.165136	-86.665397
34076		0.612024	-0.359732	-0.552852	-0.436319	17.962500	-82.151704	-86.658202
34077		0.612118	-0.359652	-0.552782	-0.436341	17.924732	-82.136981	-86.615487
34078		0.612154	-0.359648	-0.552691	-0.436411	17.888721	-82.125922	-86.586387
34079		0.612210	-0.359661	-0.552570	-0.436473	17.820045	-82.113993	-86.525694
34080		0.612314	-0.359613	-0.552482	-0.436478	17.751383	-82.101049	-86.453436
34081		0.612400	-0.359537	-0.552437	-0.436479	17.722207	-82.089533	-86.417320
34082		0.612508	-0.359418	-0.552413	-0.436454	17.701924	-82.076959	-86.383642
34083		0.612627	-0.359315	-0.552369	-0.436429	17.660711	-82.063808	-86.330300
34084		0.612769	-0.359201	-0.552326	-0.436377	17.605648	-82.050585	-86.259586
34085		0.612868	-0.359164	-0.552222	-0.436400	17.534223	-82.036473	-86.187485
34086		0.612931	-0.359231	-0.552023	-0.436508	17.419813	-82.020777	-86.090998
34087		0.612980	-0.359312	-0.551814	-0.436636	17.308536	-82.004811	-86.001116
34088		0.613016	-0.359397	-0.551613	-0.436770	17.207357	-81.989725	-85.922212
34089		0.613069	-0.359454	-0.551439	-0.436869	17.111123	-81.975609	-85.841976
34090		0.613136	-0.359499	-0.551273	-0.436947	17.011662	-81.961691	-85.755254
34091		0.613199	-0.359511	-0.551153	-0.437001	16.940115	-81.949785	-85.690780
34092		0.613281	-0.359520	-0.551023	-0.437041	16.853889	-81.936957	-85.610007
34093		0.613356	-0.359520	-0.550916	-0.437071	16.780585	-81.925816	-85.540186
34094		0.613452	-0.359442	-0.550887	-0.437036	16.745883	-81.916727	-85.494835
34095		0.613492	-0.359419	-0.550896	-0.436989	16.726599	-81.916619	-85.468620
34096		0.613559	-0.359371	-0.550926	-0.436897	16.701263	-81.917603	-85.429474
34097		0.613634	-0.359320	-0.550955	-0.436797	16.670560	-81.918371	-85.383816
34098		0.613709	-0.359293	-0.550920	-0.436758	16.620082	-81.913441	-85.327142
34099		0.613794	-0.359300	-0.550846	-0.436726	16.535972	-81.907780	-85.240779
34100		0.613853	-0.359406	-0.550724	-0.436708	16.406149	-81.906328	-85.119792
34101		0.613948	-0.359434	-0.550688	-0.436598	16.301727	-81.908253	-85.007197
34102		0.614056	-0.359448	-0.550695	-0.436426	16.197178	-81.914783	-84.886747
34103		0.614153	-0.359424	-0.550763	-0.436223	16.130219	-81.924456	-84.797008
34104		0.614272	-0.359371	-0.550812	-0.436038	16.062352	-81.929062	-84.705506
34105		0.614390	-0.359304	-0.550840	-0.435890	16.003817	-81.929469	-84.625805
34106		0.614424	-0.359341	-0.550799	-0.435865	15.946865	-81.929466	-84.569977
34107		0.614451	-0.359395	-0.550778	-0.435809	15.885170	-81.933842	-84.507952
34108		0.614406	-0.359557	-0.550708	-0.435826	15.811684	-81.941558	-84.451716
34109		0.614374	-0.359669	-0.550668	-0.435830	15.763543	-81.947900	-84.414583
34110		0.614325	-0.359777	-0.550654	-0.435827	15.732530	-81.956653	-84.393572
34111		0.614333	-0.359858	-0.550643	-0.435762	15.669128	-81.964733	-84.331314
34112		0.614299	-0.359973	-0.550615	-0.435751	15.620144	-81.972892	-84.292159
34113		0.614341	-0.359992	-0.550622	-0.435668	15.569468	-81.977387	-84.235009
34114		0.614420	-0.359960	-0.550623	-0.435581	15.520367	-81.976731	-84.174174
34115		0.614423	-0.360001	-0.550619	-0.435548	15.489423	-81.980971	-84.143870
34116		0.614407	-0.360068	-0.550591	-0.435551	15.457072	-81.984291	-84.118293
34117		0.614342	-0.360173	-0.550579	-0.435571	15.442711	-81.992231	-84.115783
34118		0.614234	-0.360312	-0.550543	-0.435653	15.442492	-81.999601	-84.136963
34119		0.614148	-0.360376	-0.550578	-0.435678	15.477540	-82.008428	-84.180393
34120		0.614071	-0.360404	-0.550606	-0.435728	15.528988	-82.012614	-84.239249
34121		0.614055	-0.360379	-0.550647	-0.435719	15.561974	-82.014515	-84.268813
34122		0.614034	-0.360323	-0.550737	-0.435682	15.623251	-82.019186	-84.320680
34123		0.613993	-0.360316	-0.550795	-0.435672	15.667139	-82.024416	-84.362676
34124		0.613958	-0.360301	-0.550841	-0.435675	15.710421	-82.027536	-84.404642
34125		0.613915	-0.360347	-0.550838	-0.435702	15.718330	-82.030863	-84.419530
34126		0.613897	-0.360405	-0.550791	-0.435739	15.692540	-82.030686	-84.403123
34127		0.613813	-0.360528	-0.550723	-0.435840	15.680275	-82.032851	-84.412855
34128		0.613709	-0.360694	-0.550627	-0.435971	15.656372	-82.035448	-84.417988
34129		0.613588	-0.360886	-0.550512	-0.436128	15.628586	-82.037941	-84.424470
34130		0.613432	-0.361086	-0.550396	-0.436328	15.626810	-82.039995	-84.462000
34131		0.613329	-0.361163	-0.550385	-0.436423	15.666800	-82.043724	-84.518703
34132		0.613257	-0.361218	-0.550388	-0.436475	15.693684	-82.047816	-84.555867
34133		0.613210	-0.361220	-0.550440	-0.436473	15.736648	-82.053162	-84.598685
34134		0.613238	-0.361113	-0.550562	-0.436369	15.790760	-82.057955	-84.631718
34135		0.613211	-0.361072	-0.550627	-0.436359	15.846515	-82.060765	-84.682263
34136		0.613097	-0.361119	-0.550631	-0.436476	15.917770	-82.062513	-84.769635
34137		0.612995	-0.361145	-0.550653	-0.436569	15.992164	-82.064757	-84.855646
34138		0.612880	-0.361227	-0.550642	-0.436677	16.039559	-82.068469	-84.921570
34139		0.612816	-0.361216	-0.550710	-0.436690	16.109003	-82.073790	-84.990925
34140		0.612731	-0.361205	-0.550799	-0.436707	16.197670	-82.081048	-85.079864
34141		0.612759	-0.361107	-0.550902	-0.436619	16.245164	-82.084226	-85.108893
34142		0.612792	-0.360974	-0.551031	-0.436518	16.311899	-82.087193	-85.152527
34143		0.612795	-0.360926	-0.551098	-0.436470	16.346187	-82.090432	-85.177125
34144		0.612785	-0.360934	-0.551121	-0.436448	16.350361	-82.094056	-85.179850
34145		0.612707	-0.361054	-0.551068	-0.436526	16.337002	-82.097928	-85.185719
34146		0.612597	-0.361191	-0.551030	-0.436615	16.340535	-82.104709	-85.211143
34147		0.612474	-0.361325	-0.551029	-0.436676	16.359781	-82.115562	-85.249132
34148		0.612465	-0.361329	-0.551109	-0.436586	16.369624	-82.126004	-85.249950
34149		0.612447	-0.361356	-0.551206	-0.436466	16.372856	-82.141160	-85.243359
34150		0.612484	-0.361341	-0.551308	-0.436298	16.354294	-82.154182	-85.206166
34151		0.612545	-0.361332	-0.551375	-0.436134	16.307938	-82.164256	-85.142358
34152		0.612629	-0.361355	-0.551398	-0.435968	16.215887	-82.172909	-85.035818
34153		0.612680	-0.361488	-0.551342	-0.435857	16.074333	-82.182782	-84.896009
34154		0.612649	-0.361772	-0.551198	-0.435847	15.897749	-82.195258	-84.745691
34155		0.612645	-0.362040	-0.551067	-0.435795	15.706982	-82.208649	-84.575662
34156		0.612636	-0.362277	-0.550968	-0.435738	15.545094	-82.222300	-84.430747
34157		0.612602	-0.362523	-0.550880	-0.435691	15.397988	-82.237620	-84.302549
34158		0.612560	-0.362776	-0.550764	-0.435686	15.252106	-82.249754	-84.180606
34159		0.612556	-0.362969	-0.550707	-0.435603	15.115965	-82.264083	-84.054662
34160		0.612623	-0.363043	-0.550727	-0.435422	15.000783	-82.277377	-83.928279
34161		0.612682	-0.363121	-0.550739	-0.435259	14.888933	-82.289691	-83.807451
34162		0.612756	-0.363209	-0.550725	-0.435099	14.754980	-82.300250	-83.665949
34163		0.612828	-0.363288	-0.550708	-0.434953	14.629196	-82.309413	-83.533166
34164		0.612967	-0.363283	-0.550710	-0.434759	14.501465	-82.313761	-83.385633
34165		0.613052	-0.363369	-0.550643	-0.434652	14.356208	-82.317409	-83.238161
34166		0.613155	-0.363443	-0.550562	-0.434546	14.202817	-82.318521	-83.081586
34167		0.613197	-0.363601	-0.550440	-0.434511	14.045439	-82.321490	-82.936106
34168		0.613207	-0.363770	-0.550325	-0.434501	13.909102	-82.325565	-82.815226
34169		0.613183	-0.363956	-0.550223	-0.434508	13.791973	-82.332233	-82.716837
34170		0.613189	-0.364084	-0.550188	-0.434437	13.690957	-82.342059	-82.620936
34171		0.613155	-0.364248	-0.550101	-0.434458	13.599731	-82.347921	-82.547689
34172		0.613206	-0.364352	-0.550058	-0.434351	13.471817	-82.355487	-82.419186
34173		0.613249	-0.364523	-0.549960	-0.434273	13.302257	-82.362783	-82.258480
34174		0.613352	-0.364599	-0.549945	-0.434083	13.145853	-82.372321	-82.090328
34175		0.613413	-0.364748	-0.549864	-0.433973	12.973902	-82.380088	-81.921887
34176		0.613532	-0.364786	-0.549867	-0.433769	12.830260	-82.388110	-81.761494
34177		0.613576	-0.364918	-0.549767	-0.433723	12.687582	-82.390871	-81.627188
34178		0.613630	-0.365058	-0.549634	-0.433698	12.529444	-82.390272	-81.480367
34179		0.613648	-0.365231	-0.549503	-0.433691	12.380155	-82.392718	-81.347378
34180		0.613749	-0.365288	-0.549469	-0.433544	12.239168	-82.397307	-81.197267
34181		0.613780	-0.365426	-0.549399	-0.433472	12.103071	-82.404042	-81.067459
34182		0.613858	-0.365503	-0.549343	-0.433368	11.969126	-82.407251	-80.930687
34183		0.613869	-0.365627	-0.549278	-0.433331	11.862924	-82.412456	-80.832728
34184		0.613968	-0.365660	-0.549253	-0.433193	11.740838	-82.415477	-80.700283
34185		0.613980	-0.365783	-0.549143	-0.433212	11.636134	-82.414746	-80.609576
34186		0.614000	-0.365891	-0.549026	-0.433241	11.535032	-82.411700	-80.522064
34187		0.613985	-0.366017	-0.548918	-0.433294	11.454131	-82.410649	-80.458771
34188		0.613993	-0.366110	-0.548854	-0.433283	11.374630	-82.412611	-80.387339
34189		0.613943	-0.366216	-0.548826	-0.433301	11.340696	-82.419032	-80.365253
34190		0.613925	-0.366250	-0.548867	-0.433246	11.329325	-82.427567	-80.351502
34191		0.613881	-0.366329	-0.548901	-0.433199	11.308776	-82.439306	-80.333598
34192		0.613796	-0.366433	-0.548935	-0.433188	11.307949	-82.452780	-80.341235
34193		0.613770	-0.366437	-0.549016	-0.433119	11.326727	-82.463047	-80.353193
34194		0.613812	-0.366369	-0.549097	-0.433014	11.336688	-82.467415	-80.345905
34195		0.613820	-0.366379	-0.549125	-0.432958	11.320427	-82.472348	-80.324916
34196		0.613859	-0.366379	-0.549125	-0.432904	11.282177	-82.473333	-80.281276
34197		0.613824	-0.366481	-0.549027	-0.432991	11.238601	-82.470637	-80.256414
34198		0.613857	-0.366537	-0.548899	-0.433060	11.166909	-82.460734	-80.197490
34199		0.613786	-0.366714	-0.548679	-0.433288	11.103030	-82.449265	-80.174113
34200		0.613645	-0.366943	-0.548439	-0.433598	11.067855	-82.438969	-80.192530
34201		0.613551	-0.367078	-0.548274	-0.433824	11.057221	-82.429640	-80.217966
34202		0.613442	-0.367183	-0.548125	-0.434078	11.085382	-82.418747	-80.282040
34203		0.613373	-0.367198	-0.548036	-0.434275	11.143507	-82.406974	-80.361641
34204		0.613272	-0.367208	-0.547986	-0.434473	11.235844	-82.398983	-80.474774
34205		0.613231	-0.367140	-0.548005	-0.434564	11.328638	-82.393149	-80.570157
34206		0.613268	-0.367016	-0.548074	-0.434530	11.388384	-82.389650	-80.614441
34207		0.613247	-0.366975	-0.548119	-0.434538	11.440080	-82.390513	-80.662785
34208		0.613203	-0.367001	-0.548111	-0.434587	11.461847	-82.391174	-80.692055
34209		0.613176	-0.367050	-0.548105	-0.434592	11.450198	-82.394886	-80.685472
34210		0.613271	-0.366993	-0.548136	-0.434467	11.401965	-82.395326	-80.619239
34211		0.613255	-0.367124	-0.548037	-0.434504	11.317489	-82.396068	-80.551323
34212		0.613148	-0.367362	-0.547880	-0.434652	11.238107	-82.398616	-80.509923
34213		0.613117	-0.367544	-0.547814	-0.434625	11.125657	-82.408699	-80.412326
34214		0.613138	-0.367669	-0.547771	-0.434544	11.008056	-82.417114	-80.298638
34215		0.613155	-0.367799	-0.547707	-0.434489	10.889679	-82.423183	-80.187488
34216		0.613362	-0.367738	-0.547723	-0.434229	10.736516	-82.423844	-80.002560
34217		0.613494	-0.367752	-0.547678	-0.434088	10.598198	-82.422667	-79.851721
34218		0.613683	-0.367704	-0.547652	-0.433894	10.454070	-82.418716	-79.683965
34219		0.613870	-0.367657	-0.547615	-0.433717	10.312035	-82.413321	-79.520039
34220		0.614121	-0.367533	-0.547631	-0.433447	10.165900	-82.408185	-79.335212
34221		0.614275	-0.367518	-0.547570	-0.433318	10.031087	-82.402223	-79.186487
34222		0.614392	-0.367498	-0.547544	-0.433201	9.934198	-82.399516	-79.076288
34223		0.614519	-0.367466	-0.547548	-0.433044	9.836161	-82.399564	-78.959541
34224		0.614582	-0.367478	-0.547540	-0.432954	9.765249	-82.401271	-78.880860
34225		0.614727	-0.367397	-0.547581	-0.432765	9.686599	-82.401262	-78.775629
34226		0.614861	-0.367316	-0.547633	-0.432576	9.617643	-82.402557	-78.680057
34227		0.614972	-0.367267	-0.547637	-0.432456	9.549403	-82.400372	-78.595131
34228		0.615115	-0.367235	-0.547643	-0.432272	9.435192	-82.400963	-78.459590
34229		0.615134	-0.367363	-0.547555	-0.432247	9.317215	-82.403244	-78.351732
34230		0.615116	-0.367541	-0.547460	-0.432243	9.195763	-82.408983	-78.247103
34231		0.615124	-0.367662	-0.547390	-0.432217	9.092975	-82.412655	-78.153484
34232		0.615101	-0.367787	-0.547335	-0.432213	9.016213	-82.418034	-78.088520
34233		0.615087	-0.367869	-0.547312	-0.432192	8.964117	-82.423260	-78.042089
34234		0.615023	-0.367998	-0.547257	-0.432243	8.924357	-82.428060	-78.019938
34235		0.614971	-0.368073	-0.547262	-0.432247	8.912855	-82.435408	-78.015814
34236		0.614881	-0.368132	-0.547301	-0.432275	8.949836	-82.444794	-78.060972
34237		0.614854	-0.368096	-0.547421	-0.432192	8.997008	-82.456001	-78.095994
34238		0.614842	-0.368007	-0.547530	-0.432146	9.074422	-82.460750	-78.159896
34239		0.614885	-0.367889	-0.547644	-0.432042	9.122513	-82.464153	-78.185896
34240		0.614874	-0.367812	-0.547737	-0.432005	9.190368	-82.468032	-78.242327
34241		0.614877	-0.367735	-0.547822	-0.431958	9.244294	-82.471144	-78.283898
34242		0.614830	-0.367760	-0.547841	-0.431982	9.269817	-82.475067	-78.313996
34243		0.614778	-0.367773	-0.547879	-0.431995	9.307770	-82.480376	-78.354353
34244		0.614787	-0.367701	-0.547942	-0.431962	9.352742	-82.481346	-78.388984
34245		0.614749	-0.367664	-0.547993	-0.431984	9.417731	-82.483253	-78.452321
34246		0.614713	-0.367601	-0.548064	-0.432000	9.501232	-82.484970	-78.531083
34247		0.614728	-0.367489	-0.548144	-0.431971	9.572945	-82.484107	-78.589050
34248		0.614753	-0.367329	-0.548296	-0.431879	9.670698	-82.487673	-78.661728
34249		0.614777	-0.367184	-0.548449	-0.431775	9.756775	-82.492831	-78.723026
34250		0.614804	-0.367070	-0.548538	-0.431720	9.818418	-82.493148	-78.768037
34251		0.614822	-0.366954	-0.548621	-0.431687	9.890792	-82.492172	-78.825793
34252		0.614834	-0.366864	-0.548694	-0.431653	9.947328	-82.492542	-78.870186
34253		0.614815	-0.366857	-0.548691	-0.431690	9.971874	-82.491002	-78.897653
34254		0.614764	-0.366871	-0.548676	-0.431769	10.011746	-82.489400	-78.946780
34255		0.614675	-0.366929	-0.548627	-0.431911	10.056206	-82.486930	-79.011033
34256		0.614576	-0.366991	-0.548577	-0.432061	10.106031	-82.484686	-79.081867
34257		0.614505	-0.367000	-0.548563	-0.432172	10.169932	-82.482165	-79.157685
34258		0.614437	-0.366980	-0.548583	-0.432261	10.252235	-82.481072	-79.246873
34259		0.614426	-0.366884	-0.548643	-0.432281	10.337597	-82.478513	-79.324822
34260		0.614514	-0.366642	-0.548810	-0.432151	10.439704	-82.476635	-79.390341
34261		0.614528	-0.366476	-0.548925	-0.432125	10.554393	-82.474437	-79.486196
34262		0.614540	-0.366330	-0.549033	-0.432096	10.655517	-82.473198	-79.570142
34263		0.614530	-0.366226	-0.549091	-0.432123	10.746276	-82.469580	-79.653578
34264		0.614461	-0.366204	-0.549112	-0.432214	10.831216	-82.468115	-79.745288
34265		0.614410	-0.366160	-0.549161	-0.432260	10.914068	-82.468708	-79.828377
34266		0.614411	-0.366074	-0.549239	-0.432234	10.979066	-82.469636	-79.882314
34267		0.614378	-0.366033	-0.549304	-0.432232	11.041602	-82.472947	-79.940402
34268		0.614410	-0.365962	-0.549394	-0.432133	11.063431	-82.477878	-79.945264
34269		0.614400	-0.365885	-0.549487	-0.432095	11.131766	-82.481445	-80.002091
34270		0.614395	-0.365855	-0.549524	-0.432080	11.158983	-82.482933	-80.024873
34271		0.614385	-0.365805	-0.549599	-0.432041	11.205846	-82.487116	-80.062771
34272		0.614342	-0.365789	-0.549677	-0.432016	11.257580	-82.494538	-80.110078
34273		0.614297	-0.365762	-0.549767	-0.431988	11.319730	-82.502183	-80.166533
34274		0.614333	-0.365638	-0.549906	-0.431865	11.378307	-82.508027	-80.200468
34275		0.614317	-0.365590	-0.550018	-0.431785	11.427600	-82.517195	-80.236853
34276		0.614369	-0.365496	-0.550128	-0.431651	11.447711	-82.522720	-80.234245
34277		0.614400	-0.365454	-0.550180	-0.431576	11.448072	-82.525897	-80.222967
34278		0.614462	-0.365385	-0.550219	-0.431496	11.440875	-82.525211	-80.201085
34279		0.614482	-0.365368	-0.550238	-0.431459	11.433935	-82.526327	-80.188831
34280		0.614466	-0.365427	-0.550206	-0.431473	11.403891	-82.528065	-80.165905
34281		0.614452	-0.365467	-0.550198	-0.431468	11.385581	-82.530926	-80.150922
34282		0.614423	-0.365478	-0.550226	-0.431465	11.404977	-82.535003	-80.170916
34283		0.614419	-0.365427	-0.550300	-0.431418	11.446168	-82.539226	-80.202237
34284		0.614476	-0.365271	-0.550441	-0.431290	11.510123	-82.542360	-80.238170
34285		0.614538	-0.365082	-0.550630	-0.431122	11.593580	-82.548288	-80.286148
34286		0.614617	-0.364889	-0.550802	-0.430952	11.663281	-82.552217	-80.320058
34287		0.614702	-0.364694	-0.550940	-0.430818	11.729681	-82.551609	-80.354134
34288		0.614808	-0.364531	-0.551022	-0.430701	11.752728	-82.547508	-80.349846
34289		0.614874	-0.364450	-0.551063	-0.430623	11.750520	-82.546008	-80.331983
34290		0.614873	-0.364476	-0.551038	-0.430633	11.730989	-82.545511	-80.316102
34291		0.614878	-0.364524	-0.551004	-0.430630	11.688944	-82.546301	-80.278393
34292		0.614848	-0.364571	-0.550994	-0.430646	11.681721	-82.549244	-80.277287
34293		0.614876	-0.364545	-0.551029	-0.430582	11.672651	-82.551926	-80.259246
34294		0.614873	-0.364537	-0.551042	-0.430577	11.682022	-82.552604	-80.267292
34295		0.614934	-0.364404	-0.551124	-0.430497	11.724311	-82.550671	-80.288779
34296		0.615101	-0.364093	-0.551319	-0.430272	11.800632	-82.547311	-80.312575
34297		0.615194	-0.363824	-0.551472	-0.430170	11.917447	-82.540873	-80.393256
34298		0.615317	-0.363511	-0.551628	-0.430060	12.040453	-82.530815	-80.475117
34299		0.615438	-0.363210	-0.551772	-0.429955	12.154630	-82.520589	-80.549946
34300		0.615575	-0.362881	-0.551939	-0.429824	12.275467	-82.510640	-80.625955
34301		0.615643	-0.362670	-0.552006	-0.429818	12.372574	-82.498527	-80.702341
34302		0.615701	-0.362508	-0.552008	-0.429869	12.443655	-82.482767	-80.763253
34303		0.615713	-0.362385	-0.551993	-0.429974	12.528469	-82.467850	-80.846948
34304		0.615752	-0.362250	-0.551969	-0.430063	12.596598	-82.451089	-80.911380
34305		0.615791	-0.362116	-0.551959	-0.430134	12.663958	-82.436218	-80.973174
34306		0.615848	-0.361942	-0.551949	-0.430211	12.742865	-82.417640	-81.043396
34307		0.615955	-0.361703	-0.551960	-0.430246	12.824559	-82.396069	-81.106019
34308		0.616113	-0.361407	-0.551975	-0.430249	12.899151	-82.370361	-81.153055
34309		0.616257	-0.361148	-0.551968	-0.430268	12.958119	-82.345497	-81.189660
34310		0.616411	-0.360916	-0.551933	-0.430287	12.988135	-82.320143	-81.199897
34311		0.616545	-0.360681	-0.551912	-0.430318	13.037938	-82.295734	-81.230805
34312		0.616645	-0.360499	-0.551870	-0.430383	13.082101	-82.273162	-81.264498
34313		0.616709	-0.360368	-0.551816	-0.430469	13.119804	-82.253712	-81.298725
34314		0.616692	-0.360380	-0.551672	-0.430670	13.130147	-82.235481	-81.330704
34315		0.616741	-0.360347	-0.551557	-0.430773	13.109549	-82.218289	-81.317792
34316		0.616793	-0.360348	-0.551436	-0.430854	13.061745	-82.204035	-81.278649
34317		0.616874	-0.360306	-0.551342	-0.430892	13.017670	-82.189584	-81.234927
34318		0.616973	-0.360289	-0.551232	-0.430906	12.939303	-82.176143	-81.156860
34319		0.617105	-0.360225	-0.551171	-0.430848	12.863272	-82.165194	-81.069357
34320		0.617251	-0.360173	-0.551085	-0.430792	12.766666	-82.152567	-80.962792
34321		0.617382	-0.360133	-0.550978	-0.430774	12.675313	-82.137976	-80.866417
34322		0.617532	-0.360068	-0.550906	-0.430707	12.585103	-82.125745	-80.763775
34323		0.617591	-0.360116	-0.550802	-0.430715	12.495954	-82.118988	-80.680391
34324		0.617627	-0.360190	-0.550705	-0.430725	12.409291	-82.115402	-80.602190
34325		0.617692	-0.360241	-0.550618	-0.430701	12.312770	-82.111250	-80.508545
34326		0.617722	-0.360328	-0.550563	-0.430655	12.219718	-82.114337	-80.419333
34327		0.617781	-0.360350	-0.550565	-0.430550	12.148010	-82.118540	-80.339252
34328		0.617878	-0.360352	-0.550569	-0.430404	12.055253	-82.122044	-80.232262
34329		0.618011	-0.360319	-0.550571	-0.430237	11.955043	-82.122471	-80.112480
34330		0.618144	-0.360332	-0.550528	-0.430091	11.821792	-82.121777	-79.966151
34331		0.618255	-0.360355	-0.550484	-0.429968	11.700737	-82.121533	-79.835231
34332		0.618271	-0.360497	-0.550390	-0.429946	11.581377	-82.124867	-79.727567
34333		0.618330	-0.360562	-0.550370	-0.429832	11.476397	-82.130780	-79.617519
34334		0.618385	-0.360688	-0.550268	-0.429778	11.332301	-82.132242	-79.480440
34335		0.618431	-0.360805	-0.550185	-0.429721	11.202765	-82.134958	-79.356635
34336		0.618424	-0.360973	-0.550034	-0.429783	11.086861	-82.132767	-79.263340
34337		0.618504	-0.361012	-0.549971	-0.429716	10.984508	-82.130689	-79.158374
34338		0.618532	-0.361090	-0.549924	-0.429669	10.899599	-82.133589	-79.076384
34339		0.618640	-0.361091	-0.549939	-0.429494	10.795684	-82.138368	-78.955151
34340		0.618780	-0.361079	-0.549931	-0.429312	10.672306	-82.139567	-78.812761
34341		0.618894	-0.361096	-0.549897	-0.429177	10.553076	-82.139676	-78.681865
34342		0.618882	-0.361282	-0.549753	-0.429224	10.427909	-82.139953	-78.579523
34343		0.618917	-0.361403	-0.549674	-0.429171	10.304594	-82.143219	-78.462781
34344		0.618937	-0.361514	-0.549619	-0.429119	10.201315	-82.148163	-78.365107
34345		0.618960	-0.361597	-0.549592	-0.429051	10.116337	-82.153809	-78.281295
34346		0.618999	-0.361642	-0.549581	-0.428970	10.043919	-82.158039	-78.205200
34347		0.619077	-0.361635	-0.549599	-0.428841	9.974122	-82.161369	-78.121809
34348		0.619114	-0.361680	-0.549574	-0.428782	9.904547	-82.163644	-78.050783
34349		0.619207	-0.361649	-0.549586	-0.428659	9.839756	-82.164089	-77.970897
34350		0.619260	-0.361683	-0.549601	-0.428535	9.760678	-82.170763	-77.882645
34351		0.619271	-0.361748	-0.549606	-0.428457	9.698365	-82.178371	-77.818736
34352		0.619208	-0.361896	-0.549529	-0.428521	9.646004	-82.182331	-77.787015
34353		0.619231	-0.361930	-0.549515	-0.428478	9.597975	-82.184420	-77.737908
34354		0.619253	-0.361984	-0.549482	-0.428443	9.536391	-82.186285	-77.678183
34355		0.619288	-0.361969	-0.549504	-0.428377	9.512906	-82.188306	-77.646629
34356		0.619327	-0.361937	-0.549548	-0.428290	9.497389	-82.191722	-77.619255
34357		0.619405	-0.361849	-0.549611	-0.428171	9.488446	-82.192556	-77.590035
34358		0.619505	-0.361713	-0.549709	-0.428015	9.492981	-82.193550	-77.565847
34359		0.619557	-0.361640	-0.549753	-0.427945	9.497596	-82.192891	-77.556518
34360		0.619526	-0.361705	-0.549703	-0.427999	9.479793	-82.192422	-77.550415
34361		0.619522	-0.361737	-0.549662	-0.428032	9.461546	-82.190181	-77.538598
34362		0.619507	-0.361812	-0.549563	-0.428116	9.423283	-82.184717	-77.516171
34363		0.619504	-0.361866	-0.549495	-0.428163	9.388457	-82.181250	-77.491370
34364		0.619428	-0.361984	-0.549427	-0.428260	9.372358	-82.182967	-77.496295
34365		0.619442	-0.361974	-0.549467	-0.428196	9.363250	-82.187453	-77.479831
34366		0.619478	-0.361956	-0.549484	-0.428138	9.342052	-82.188666	-77.451082
34367		0.619521	-0.361935	-0.549496	-0.428079	9.316997	-82.188937	-77.418116
34368		0.619543	-0.361919	-0.549478	-0.428083	9.309714	-82.185419	-77.409870
34369		0.619524	-0.361914	-0.549468	-0.428127	9.332351	-82.183224	-77.436397
34370		0.619459	-0.361962	-0.549459	-0.428192	9.357474	-82.185583	-77.472599
34371		0.619328	-0.362057	-0.549457	-0.428305	9.407720	-82.192168	-77.542798
34372		0.619269	-0.362037	-0.549521	-0.428324	9.475142	-82.197251	-77.609878
34373		0.619191	-0.362055	-0.549555	-0.428378	9.533545	-82.201779	-77.675194
34374		0.619111	-0.362066	-0.549565	-0.428471	9.600856	-82.202466	-77.752701
34375		0.619127	-0.361978	-0.549611	-0.428464	9.652121	-82.199636	-77.794749
34376		0.619133	-0.361938	-0.549634	-0.428459	9.676423	-82.198735	-77.814732
34377		0.619118	-0.361929	-0.549671	-0.428442	9.695750	-82.202235	-77.831269
34378		0.619030	-0.362015	-0.549679	-0.428485	9.711148	-82.210224	-77.858962
34379		0.618902	-0.362162	-0.549661	-0.428568	9.717701	-82.220325	-77.887699
34380		0.618782	-0.362266	-0.549662	-0.428652	9.750031	-82.228539	-77.938047
34381		0.618629	-0.362359	-0.549708	-0.428737	9.821225	-82.240681	-78.026098
34382		0.618485	-0.362432	-0.549773	-0.428800	9.896765	-82.253463	-78.114421
34383		0.618390	-0.362439	-0.549860	-0.428819	9.977421	-82.263372	-78.197154
34384		0.618329	-0.362390	-0.549948	-0.428834	10.068939	-82.268458	-78.285191
34385		0.618294	-0.362289	-0.550072	-0.428812	10.175688	-82.273202	-78.379533
34386		0.618220	-0.362257	-0.550136	-0.428864	10.268674	-82.276528	-78.474367
34387		0.618159	-0.362257	-0.550205	-0.428863	10.323322	-82.283992	-78.528603
34388		0.618019	-0.362419	-0.550190	-0.428948	10.331066	-82.295691	-78.559954
34389		0.617901	-0.362547	-0.550171	-0.429034	10.344576	-82.303771	-78.594081
34390		0.617797	-0.362651	-0.550164	-0.429106	10.363356	-82.311275	-78.629771
34391		0.617663	-0.362777	-0.550141	-0.429221	10.393838	-82.318381	-78.683634
34392		0.617547	-0.362895	-0.550124	-0.429309	10.413154	-82.325796	-78.722890
34393		0.617451	-0.362976	-0.550145	-0.429352	10.440851	-82.334688	-78.762339
34394		0.617417	-0.362935	-0.550237	-0.429318	10.500818	-82.341529	-78.814556
34395		0.617381	-0.362878	-0.550319	-0.429313	10.576954	-82.345451	-78.884460
34396		0.617280	-0.362891	-0.550356	-0.429401	10.663523	-82.349061	-78.980703
34397		0.617264	-0.362827	-0.550427	-0.429385	10.726090	-82.351309	-79.035399
34398		0.617272	-0.362780	-0.550451	-0.429383	10.753893	-82.349641	-79.058496
34399		0.617264	-0.362755	-0.550440	-0.429430	10.782402	-82.345345	-79.089349
34400		0.617236	-0.362794	-0.550405	-0.429482	10.780898	-82.344297	-79.096809
34401		0.617160	-0.362911	-0.550350	-0.429563	10.764638	-82.347499	-79.099774
34402		0.617091	-0.363030	-0.550298	-0.429628	10.739151	-82.351572	-79.092205
34403		0.617009	-0.363180	-0.550234	-0.429700	10.703494	-82.357100	-79.078172
34404		0.617063	-0.363183	-0.550235	-0.429619	10.648234	-82.358782	-79.015119
34405		0.617041	-0.363234	-0.550246	-0.429593	10.627659	-82.365138	-78.996713
34406		0.617081	-0.363188	-0.550334	-0.429462	10.620701	-82.372829	-78.972079
34407		0.617098	-0.363214	-0.550370	-0.429371	10.581397	-82.380583	-78.925961
34408		0.617107	-0.363235	-0.550403	-0.429296	10.552939	-82.387411	-78.891953
34409		0.617080	-0.363293	-0.550392	-0.429301	10.533788	-82.391374	-78.878711
34410		0.616987	-0.363460	-0.550329	-0.429374	10.494301	-82.398537	-78.862499
34411		0.616917	-0.363564	-0.550338	-0.429374	10.478590	-82.408947	-78.856539
34412		0.616877	-0.363628	-0.550395	-0.429305	10.462588	-82.422263	-78.839479
34413		0.616844	-0.363698	-0.550415	-0.429268	10.437265	-82.431398	-78.816944
34414		0.616911	-0.363626	-0.550524	-0.429092	10.422021	-82.439718	-78.776988
34415		0.616923	-0.363580	-0.550619	-0.428992	10.441791	-82.447530	-78.782109
34416		0.616928	-0.363575	-0.550679	-0.428913	10.437225	-82.454994	-78.768926
34417		0.616957	-0.363550	-0.550758	-0.428791	10.423969	-82.463384	-78.740910
34418		0.617052	-0.363440	-0.550865	-0.428610	10.412190	-82.468203	-78.700365
34419		0.617012	-0.363501	-0.550847	-0.428639	10.403439	-82.471311	-78.700259
34420		0.616916	-0.363665	-0.550736	-0.428780	10.371985	-82.471762	-78.698746
34421		0.616856	-0.363783	-0.550685	-0.428832	10.338260	-82.475937	-78.681465
34422		0.616860	-0.363801	-0.550697	-0.428795	10.318741	-82.479502	-78.660017
34423		0.616865	-0.363815	-0.550722	-0.428744	10.300659	-82.484414	-78.638054
34424		0.616978	-0.363656	-0.550846	-0.428557	10.310092	-82.486590	-78.613373
34425		0.617051	-0.363565	-0.550892	-0.428470	10.308970	-82.484796	-78.594892
34426		0.617218	-0.363378	-0.550975	-0.428281	10.289853	-82.480054	-78.539170
34427		0.617273	-0.363333	-0.550968	-0.428248	10.272359	-82.475803	-78.514202
34428		0.617362	-0.363277	-0.550967	-0.428169	10.229806	-82.471837	-78.458574
34429		0.617361	-0.363348	-0.550906	-0.428189	10.176875	-82.471294	-78.414519
34430		0.617366	-0.363422	-0.550823	-0.428226	10.117429	-82.468308	-78.366174
34431		0.617323	-0.363515	-0.550742	-0.428315	10.090235	-82.466283	-78.356855
34432		0.617363	-0.363516	-0.550725	-0.428276	10.049345	-82.465252	-78.312322
34433		0.617356	-0.363590	-0.550657	-0.428311	10.001085	-82.463878	-78.274776
34434		0.617447	-0.363560	-0.550633	-0.428237	9.937214	-82.459726	-78.200945
34435		0.617506	-0.363567	-0.550587	-0.428205	9.875991	-82.455717	-78.137415
34436		0.617630	-0.363499	-0.550583	-0.428089	9.808967	-82.450998	-78.052613
34437		0.617653	-0.363551	-0.550513	-0.428102	9.748802	-82.447676	-77.998896
34438		0.617657	-0.363609	-0.550434	-0.428148	9.702871	-82.443609	-77.963445
34439		0.617642	-0.363709	-0.550313	-0.428240	9.644808	-82.437742	-77.924409
34440		0.617555	-0.363879	-0.550180	-0.428392	9.601617	-82.436068	-77.912879
34441		0.617508	-0.363972	-0.550111	-0.428470	9.576816	-82.435678	-77.904910
34442		0.617424	-0.364089	-0.550031	-0.428594	9.570324	-82.435517	-77.922057
34443		0.617449	-0.364017	-0.550084	-0.428551	9.599914	-82.435471	-77.940338
34444		0.617601	-0.363812	-0.550237	-0.428308	9.605545	-82.437696	-77.902001
34445		0.617609	-0.363758	-0.550306	-0.428255	9.637801	-82.441192	-77.923505
34446		0.617700	-0.363607	-0.550421	-0.428105	9.663046	-82.442544	-77.919183
34447		0.617689	-0.363621	-0.550435	-0.428090	9.660478	-82.445700	-77.916405
34448		0.617692	-0.363615	-0.550464	-0.428054	9.661000	-82.448884	-77.912705
34449		0.617647	-0.363659	-0.550470	-0.428073	9.668508	-82.453268	-77.926079
34450		0.617685	-0.363586	-0.550553	-0.427974	9.684652	-82.457377	-77.925225
34451		0.617640	-0.363600	-0.550585	-0.427986	9.715126	-82.461985	-77.958056
34452		0.617671	-0.363465	-0.550697	-0.427911	9.786923	-82.463373	-78.009205
34453		0.617662	-0.363400	-0.550725	-0.427944	9.847879	-82.459947	-78.067129
34454		0.617626	-0.363381	-0.550727	-0.428010	9.899485	-82.457500	-78.123443
34455		0.617594	-0.363341	-0.550786	-0.428014	9.959662	-82.460221	-78.180023
34456		0.617586	-0.363276	-0.550883	-0.427956	10.013755	-82.465991	-78.221843
34457		0.617504	-0.363269	-0.550939	-0.428008	10.097203	-82.470725	-78.309485
34458		0.617481	-0.363196	-0.551028	-0.427989	10.173867	-82.474162	-78.376927
34459		0.617392	-0.363206	-0.551080	-0.428041	10.250644	-82.480004	-78.459541
34460		0.617403	-0.363116	-0.551190	-0.427960	10.305912	-82.485213	-78.497791
34461		0.617363	-0.363131	-0.551202	-0.427990	10.333081	-82.487345	-78.529282
34462		0.617335	-0.363107	-0.551224	-0.428022	10.378156	-82.487075	-78.575180
34463		0.617316	-0.363106	-0.551231	-0.428043	10.398595	-82.487341	-78.597452
34464		0.617258	-0.363125	-0.551233	-0.428106	10.439620	-82.488322	-78.646563
34465		0.617235	-0.363092	-0.551261	-0.428132	10.488268	-82.487874	-78.694516
34466		0.617165	-0.363126	-0.551265	-0.428199	10.530291	-82.490265	-78.746310
34467		0.617113	-0.363138	-0.551261	-0.428269	10.572496	-82.489770	-78.796633
34468		0.617083	-0.363156	-0.551238	-0.428326	10.588827	-82.487945	-78.820352
34469		0.617003	-0.363193	-0.551241	-0.428406	10.638227	-82.490245	-78.881148
34470		0.616885	-0.363304	-0.551204	-0.428529	10.667733	-82.494180	-78.933450
34471		0.616847	-0.363319	-0.551228	-0.428540	10.691403	-82.497966	-78.959521
34472		0.616812	-0.363301	-0.551248	-0.428581	10.740486	-82.497832	-79.010860
34473		0.616811	-0.363233	-0.551294	-0.428579	10.793028	-82.496765	-79.056597
34474		0.616792	-0.363186	-0.551310	-0.428627	10.850514	-82.493294	-79.114349
34475		0.616748	-0.363180	-0.551329	-0.428670	10.897407	-82.494074	-79.164838
34476		0.616657	-0.363257	-0.551315	-0.428755	10.926710	-82.498017	-79.209784
34477		0.616574	-0.363315	-0.551354	-0.428774	10.959706	-82.507341	-79.249970
34478		0.616504	-0.363348	-0.551394	-0.428796	11.000190	-82.514204	-79.295464
34479		0.616451	-0.363355	-0.551456	-0.428786	11.043949	-82.521783	-79.338654
34480		0.616535	-0.363157	-0.551627	-0.428614	11.112324	-82.525287	-79.370572
34481		0.616542	-0.363056	-0.551725	-0.428563	11.181518	-82.527607	-79.424723
34482		0.616526	-0.363000	-0.551791	-0.428548	11.239296	-82.529887	-79.475560
34483		0.616527	-0.362920	-0.551870	-0.428512	11.298724	-82.531792	-79.523500
34484		0.616431	-0.362958	-0.551878	-0.428609	11.364290	-82.534390	-79.602092
34485		0.616369	-0.363007	-0.551839	-0.428705	11.387627	-82.532935	-79.639782
34486		0.616390	-0.362992	-0.551813	-0.428721	11.379942	-82.528433	-79.632402
34487		0.616327	-0.363070	-0.551737	-0.428843	11.383626	-82.525152	-79.655868
34488		0.616288	-0.363082	-0.551738	-0.428889	11.413239	-82.525475	-79.691092
34489		0.616254	-0.363069	-0.551767	-0.428912	11.456383	-82.526931	-79.735106
34490		0.616213	-0.363048	-0.551803	-0.428941	11.512124	-82.528443	-79.791618
34491		0.616203	-0.362960	-0.551858	-0.428960	11.590296	-82.525884	-79.863144
34492		0.616278	-0.362793	-0.551945	-0.428881	11.646415	-82.521435	-79.895282
34493		0.616237	-0.362734	-0.552004	-0.428914	11.731618	-82.521723	-79.977982
34494		0.616148	-0.362755	-0.551991	-0.429041	11.804381	-82.519836	-80.065278
34495		0.616138	-0.362691	-0.552043	-0.429044	11.864068	-82.519445	-80.118969
34496		0.616150	-0.362580	-0.552135	-0.429000	11.936244	-82.520054	-80.176035
34497		0.616115	-0.362552	-0.552192	-0.429001	11.991505	-82.523565	-80.228450
34498		0.616084	-0.362559	-0.552192	-0.429041	12.017526	-82.523346	-80.259057
34499		0.616083	-0.362567	-0.552165	-0.429070	12.012816	-82.520674	-80.258187
34500		0.616071	-0.362577	-0.552130	-0.429124	12.018276	-82.516781	-80.270014
34501		0.616047	-0.362620	-0.552084	-0.429181	12.009857	-82.514700	-80.271548
34502		0.616049	-0.362622	-0.552088	-0.429171	12.004975	-82.515516	-80.265810
34503		0.616031	-0.362668	-0.552058	-0.429197	11.988136	-82.516040	-80.256018
34504		0.616030	-0.362689	-0.552053	-0.429185	11.971667	-82.517747	-80.240436
34505		0.616018	-0.362707	-0.552041	-0.429204	11.970210	-82.517654	-80.242574
34506		0.616037	-0.362670	-0.552072	-0.429168	11.979854	-82.518293	-80.245050
34507		0.616012	-0.362691	-0.552096	-0.429155	11.986504	-82.523108	-80.252192
34508		0.615993	-0.362703	-0.552116	-0.429147	11.995476	-82.526427	-80.261411
34509		0.615979	-0.362678	-0.552149	-0.429145	12.027577	-82.527763	-80.290836
34510		0.616014	-0.362623	-0.552191	-0.429088	12.035800	-82.528258	-80.287987
34511		0.616013	-0.362593	-0.552239	-0.429054	12.058917	-82.531252	-80.304731
34512		0.616028	-0.362533	-0.552309	-0.428992	12.089017	-82.534364	-80.322727
34513		0.616024	-0.362517	-0.552348	-0.428962	12.104463	-82.537666	-80.333524
34514		0.616018	-0.362518	-0.552374	-0.428935	12.107960	-82.541103	-80.334277
34515		0.616001	-0.362540	-0.552391	-0.428920	12.106950	-82.545197	-80.333815
34516		0.616046	-0.362480	-0.552450	-0.428828	12.107010	-82.547844	-80.318886
34517		0.616027	-0.362521	-0.552443	-0.428832	12.095021	-82.550699	-80.311073
34518		0.616035	-0.362493	-0.552491	-0.428781	12.106846	-82.554328	-80.315119
34519		0.616022	-0.362535	-0.552476	-0.428784	12.087071	-82.556462	-80.299576
34520		0.616085	-0.362494	-0.552517	-0.428675	12.055400	-82.559183	-80.253109
34521		0.616055	-0.362565	-0.552498	-0.428683	12.029003	-82.563517	-80.234249
34522		0.616112	-0.362504	-0.552566	-0.428565	12.018169	-82.567386	-80.205705
34523		0.616092	-0.362479	-0.552599	-0.428572	12.056582	-82.568662	-80.242305
34524		0.616083	-0.362441	-0.552678	-0.428515	12.092338	-82.574640	-80.268519
34525		0.616068	-0.362419	-0.552779	-0.428425	12.121469	-82.585077	-80.286132
34526		0.616150	-0.362261	-0.552962	-0.428205	12.159237	-82.594430	-80.286483
34527		0.616182	-0.362175	-0.553078	-0.428081	12.190915	-82.601341	-80.297276
34528		0.616201	-0.362109	-0.553174	-0.427986	12.221197	-82.607417	-80.311483
34529		0.616198	-0.362070	-0.553259	-0.427914	12.252800	-82.614267	-80.331907
34530		0.616201	-0.362021	-0.553350	-0.427832	12.284798	-82.621135	-80.350866
34531		0.616164	-0.362034	-0.553425	-0.427778	12.308990	-82.631390	-80.370596
34532		0.616118	-0.362046	-0.553495	-0.427744	12.343894	-82.640602	-80.402832
34533		0.616053	-0.362070	-0.553567	-0.427723	12.385877	-82.650852	-80.444778
34534		0.615989	-0.362110	-0.553618	-0.427717	12.417431	-82.660007	-80.479116
34535		0.615958	-0.362094	-0.553710	-0.427655	12.457556	-82.669620	-80.511323
34536		0.616030	-0.361924	-0.553886	-0.427467	12.515937	-82.676497	-80.534325
34537		0.616023	-0.361835	-0.554047	-0.427344	12.589079	-82.687807	-80.586179
34538		0.615992	-0.361796	-0.554156	-0.427281	12.648435	-82.697151	-80.635083
34539		0.615959	-0.361802	-0.554210	-0.427253	12.674393	-82.703979	-80.658663
34540		0.615945	-0.361776	-0.554259	-0.427232	12.708258	-82.707183	-80.687731
34541		0.615857	-0.361778	-0.554310	-0.427291	12.795324	-82.711574	-80.780634
34542		0.615887	-0.361655	-0.554455	-0.427164	12.859084	-82.718166	-80.819572
34543		0.615821	-0.361654	-0.554524	-0.427171	12.925854	-82.725190	-80.886611
34544		0.615789	-0.361582	-0.554628	-0.427142	13.013223	-82.730154	-80.963911
34545		0.615757	-0.361467	-0.554733	-0.427149	13.135272	-82.730504	-81.075441
34546		0.615730	-0.361345	-0.554836	-0.427158	13.258839	-82.729920	-81.187912
34547		0.615703	-0.361206	-0.554974	-0.427135	13.394575	-82.732102	-81.307664
34548		0.615713	-0.361017	-0.555166	-0.427030	13.530923	-82.737041	-81.415142
34549		0.615648	-0.360963	-0.555231	-0.427085	13.638963	-82.737611	-81.523196
34550		0.615588	-0.360869	-0.555312	-0.427146	13.774250	-82.736032	-81.655313
34551		0.615478	-0.360851	-0.555348	-0.427274	13.900856	-82.735211	-81.792645
34552		0.615417	-0.360752	-0.555451	-0.427311	14.040091	-82.735939	-81.925906
34553		0.615302	-0.360696	-0.555573	-0.427365	14.199870	-82.742197	-82.085144
34554		0.615287	-0.360510	-0.555780	-0.427273	14.359841	-82.748497	-82.217703
34555		0.615233	-0.360379	-0.555973	-0.427211	14.517119	-82.757607	-82.355634
34556		0.615202	-0.360231	-0.556128	-0.427179	14.664933	-82.760661	-82.485735
34557		0.615155	-0.360121	-0.556251	-0.427179	14.798677	-82.762966	-82.608710
34558		0.615082	-0.360022	-0.556369	-0.427215	14.951010	-82.764962	-82.754701
34559		0.614976	-0.360000	-0.556443	-0.427289	15.076168	-82.768761	-82.884804
34560		0.614896	-0.359945	-0.556533	-0.427335	15.202061	-82.771559	-83.009621
34561		0.614748	-0.359965	-0.556611	-0.427427	15.336915	-82.779115	-83.155213
34562		0.614746	-0.359767	-0.556820	-0.427324	15.494674	-82.784483	-83.283322
34563		0.614652	-0.359667	-0.556955	-0.427369	15.670168	-82.787619	-83.453216
34564		0.614709	-0.359397	-0.557195	-0.427199	15.823353	-82.790998	-83.563304
34565		0.614675	-0.359263	-0.557343	-0.427169	15.963976	-82.794138	-83.687729
34566		0.614741	-0.359011	-0.557543	-0.427025	16.094622	-82.794455	-83.779665
34567		0.614681	-0.358932	-0.557641	-0.427049	16.218152	-82.796230	-83.897695
34568		0.614600	-0.358913	-0.557690	-0.427119	16.317013	-82.797468	-84.001473
34569		0.614501	-0.358966	-0.557667	-0.427246	16.376249	-82.796756	-84.078376
34570		0.614449	-0.358959	-0.557686	-0.427302	16.434583	-82.796512	-84.141555
34571		0.614346	-0.359002	-0.557688	-0.427412	16.506918	-82.797852	-84.228704
34572		0.614262	-0.358990	-0.557743	-0.427471	16.603048	-82.800588	-84.329317
34573		0.614236	-0.358924	-0.557835	-0.427444	16.682700	-82.804164	-84.399757
34574		0.614350	-0.358736	-0.557962	-0.427272	16.713463	-82.803883	-84.395388
34575		0.614372	-0.358657	-0.558024	-0.427225	16.752663	-82.803900	-84.422204
34576		0.614483	-0.358477	-0.558144	-0.427058	16.779095	-82.803596	-84.414841
34577		0.614504	-0.358418	-0.558176	-0.427037	16.804157	-82.801721	-84.432112
34578		0.614618	-0.358261	-0.558259	-0.426897	16.810208	-82.799170	-84.409224
34579		0.614635	-0.358208	-0.558281	-0.426887	16.832652	-82.796624	-84.425700
34580		0.614599	-0.358237	-0.558249	-0.426956	16.846477	-82.794368	-84.449166
34581		0.614630	-0.358181	-0.558277	-0.426922	16.858395	-82.792820	-84.452380
34582		0.614639	-0.358170	-0.558265	-0.426935	16.857378	-82.790270	-84.451617
34583		0.614725	-0.358090	-0.558276	-0.426865	16.831917	-82.785763	-84.411583
34584		0.614930	-0.357894	-0.558334	-0.426656	16.773043	-82.778999	-84.313604
34585		0.615027	-0.357858	-0.558304	-0.426587	16.701434	-82.774475	-84.231840
34586		0.615068	-0.357926	-0.558181	-0.426631	16.605018	-82.767453	-84.146663
34587		0.615167	-0.357934	-0.558098	-0.426591	16.496363	-82.761035	-84.035102
34588		0.615241	-0.357947	-0.558003	-0.426597	16.409346	-82.752647	-83.950347
34589		0.615300	-0.357956	-0.557930	-0.426600	16.340935	-82.746268	-83.883420
34590		0.615442	-0.357902	-0.557874	-0.426513	16.237076	-82.738006	-83.766102
34591		0.615501	-0.357923	-0.557788	-0.426523	16.159678	-82.731128	-83.691999
34592		0.615567	-0.357937	-0.557709	-0.426520	16.081416	-82.724627	-83.615095
34593		0.615664	-0.357903	-0.557671	-0.426458	16.008782	-82.719222	-83.533263
34594		0.615859	-0.357721	-0.557751	-0.426224	15.951389	-82.716411	-83.435364
34595		0.615983	-0.357619	-0.557752	-0.426130	15.904323	-82.709421	-83.369545
34596		0.616049	-0.357631	-0.557684	-0.426113	15.827228	-82.704205	-83.292165
34597		0.616174	-0.357543	-0.557663	-0.426034	15.769225	-82.695956	-83.218182
34598		0.616408	-0.357341	-0.557701	-0.425815	15.687409	-82.686653	-83.095734
34599		0.616469	-0.357363	-0.557627	-0.425805	15.608347	-82.681393	-83.018023
34600		0.616568	-0.357316	-0.557613	-0.425719	15.543802	-82.677878	-82.940691
34601		0.616647	-0.357300	-0.557541	-0.425712	15.475831	-82.669308	-82.870863
34602		0.616712	-0.357292	-0.557465	-0.425725	15.416986	-82.660617	-82.812831
34603		0.616839	-0.357169	-0.557472	-0.425635	15.383795	-82.652149	-82.759249
34604		0.616962	-0.357058	-0.557491	-0.425524	15.345089	-82.646632	-82.699098
34605		0.617089	-0.356953	-0.557487	-0.425434	15.297782	-82.638701	-82.633109
34606		0.617278	-0.356760	-0.557536	-0.425257	15.255537	-82.630283	-82.555062
34607		0.617352	-0.356730	-0.557505	-0.425216	15.204662	-82.625295	-82.497555
34608		0.617468	-0.356661	-0.557479	-0.425138	15.140726	-82.618295	-82.419597
34609		0.617525	-0.356682	-0.557382	-0.425167	15.068646	-82.609522	-82.352721
34610		0.617633	-0.356608	-0.557352	-0.425110	15.016826	-82.601164	-82.288517
34611		0.617684	-0.356573	-0.557309	-0.425122	14.993022	-82.593139	-82.262779
34612		0.617915	-0.356339	-0.557401	-0.424863	14.941141	-82.587213	-82.163052
34613		0.617998	-0.356250	-0.557398	-0.424820	14.925983	-82.579814	-82.135303
34614		0.617995	-0.356289	-0.557297	-0.424924	14.899610	-82.570667	-82.123360
34615		0.618101	-0.356166	-0.557313	-0.424852	14.887921	-82.562636	-82.092973
34616		0.618215	-0.356023	-0.557340	-0.424770	14.883301	-82.554344	-82.066802
34617		0.618288	-0.355929	-0.557349	-0.424732	14.882961	-82.547440	-82.053825
34618		0.618318	-0.355907	-0.557321	-0.424744	14.870793	-82.542224	-82.040917
34619		0.618369	-0.355862	-0.557283	-0.424757	14.854506	-82.533925	-82.021837
34620		0.618377	-0.355903	-0.557196	-0.424825	14.815949	-82.527175	-81.994267
34621		0.618448	-0.355819	-0.557179	-0.424814	14.809710	-82.518068	-81.979146
34622		0.618438	-0.355852	-0.557107	-0.424895	14.794166	-82.511749	-81.975029
34623		0.618521	-0.355743	-0.557166	-0.424787	14.794568	-82.510357	-81.954318
34624		0.618579	-0.355662	-0.557205	-0.424720	14.798896	-82.508548	-81.944291
34625		0.618667	-0.355537	-0.557249	-0.424639	14.806602	-82.503481	-81.932136
34626		0.618712	-0.355506	-0.557215	-0.424645	14.785985	-82.496995	-81.909388
34627		0.618775	-0.355475	-0.557179	-0.424625	14.747318	-82.490919	-81.865962
34628		0.618856	-0.355437	-0.557155	-0.424572	14.697147	-82.486168	-81.807134
34629		0.618876	-0.355482	-0.557096	-0.424581	14.643700	-82.484074	-81.759111
34630		0.618818	-0.355628	-0.556967	-0.424711	14.590207	-82.481220	-81.732668
34631		0.618837	-0.355640	-0.556949	-0.424699	14.563365	-82.480623	-81.705813
34632		0.618822	-0.355695	-0.556878	-0.424768	14.537704	-82.476773	-81.692345
34633		0.618853	-0.355670	-0.556874	-0.424748	14.525106	-82.474525	-81.675492
34634		0.618932	-0.355582	-0.556918	-0.424649	14.514111	-82.473373	-81.646368
34635		0.618948	-0.355540	-0.556958	-0.424609	14.529699	-82.474524	-81.653826
34636		0.618949	-0.355544	-0.556975	-0.424582	14.525431	-82.477258	-81.647276
34637		0.618942	-0.355560	-0.556994	-0.424554	14.520102	-82.481354	-81.640581
34638		0.618997	-0.355526	-0.557008	-0.424482	14.490666	-82.481380	-81.600820
34639		0.619028	-0.355523	-0.557009	-0.424439	14.462265	-82.482201	-81.567853
34640		0.618999	-0.355561	-0.557004	-0.424456	14.461872	-82.484704	-81.572812
34641		0.618995	-0.355554	-0.557037	-0.424425	14.471091	-82.488188	-81.578080
34642		0.619014	-0.355526	-0.557093	-0.424347	14.472648	-82.493221	-81.569112
34643		0.619003	-0.355536	-0.557123	-0.424316	14.475629	-82.497911	-81.569785
34644		0.618998	-0.355566	-0.557146	-0.424267	14.457205	-82.504238	-81.549223
34645		0.618960	-0.355629	-0.557159	-0.424252	14.445753	-82.511704	-81.542242
34646		0.618881	-0.355745	-0.557124	-0.424316	14.436265	-82.517239	-81.550073
34647		0.618856	-0.355773	-0.557151	-0.424294	14.439086	-82.523057	-81.553123
34648		0.618822	-0.355794	-0.557180	-0.424287	14.455651	-82.528219	-81.570906
34649		0.618789	-0.355831	-0.557190	-0.424292	14.460580	-82.532523	-81.579747
34650		0.618846	-0.355755	-0.557274	-0.424162	14.460764	-82.537160	-81.559653
34651		0.618840	-0.355775	-0.557278	-0.424149	14.451726	-82.539726	-81.551168
34652		0.618832	-0.355754	-0.557310	-0.424136	14.474564	-82.541362	-81.570669
34653		0.618858	-0.355721	-0.557355	-0.424068	14.473881	-82.544542	-81.559890
34654		0.618779	-0.355802	-0.557311	-0.424172	14.490701	-82.545068	-81.594848
34655		0.618804	-0.355776	-0.557314	-0.424153	14.485911	-82.543499	-81.585743
34656		0.618711	-0.355905	-0.557223	-0.424300	14.480719	-82.542474	-81.607399
34657		0.618696	-0.355946	-0.557197	-0.424322	14.464907	-82.543027	-81.597654
34658		0.618753	-0.355937	-0.557199	-0.424243	14.414077	-82.544219	-81.538283
34659		0.618725	-0.356007	-0.557157	-0.424281	14.389226	-82.545396	-81.523842
34660		0.618569	-0.356270	-0.556992	-0.424504	14.344928	-82.547320	-81.526832
34661		0.618574	-0.356327	-0.556953	-0.424500	14.296369	-82.548612	-81.483390
34662		0.618547	-0.356421	-0.556884	-0.424552	14.252347	-82.548880	-81.453581
34663		0.618580	-0.356448	-0.556828	-0.424553	14.198775	-82.545610	-81.402945
34664		0.618630	-0.356446	-0.556783	-0.424542	14.151532	-82.540980	-81.354606
34665		0.618639	-0.356482	-0.556751	-0.424542	14.115944	-82.540886	-81.322508
34666		0.618584	-0.356582	-0.556681	-0.424628	14.094022	-82.540871	-81.318787
34667		0.618563	-0.356618	-0.556646	-0.424674	14.087967	-82.539560	-81.320758
34668		0.618465	-0.356760	-0.556570	-0.424798	14.078086	-82.541797	-81.336717
34669		0.618459	-0.356747	-0.556583	-0.424802	14.093901	-82.541806	-81.351604
34670		0.618458	-0.356705	-0.556631	-0.424774	14.125134	-82.543646	-81.375985
34671		0.618478	-0.356667	-0.556667	-0.424729	14.134045	-82.544957	-81.376775
34672		0.618499	-0.356660	-0.556675	-0.424694	14.118415	-82.545949	-81.356914
34673		0.618506	-0.356675	-0.556693	-0.424649	14.100429	-82.550180	-81.335808
34674		0.618492	-0.356726	-0.556673	-0.424652	14.074326	-82.552696	-81.314937
34675		0.618522	-0.356694	-0.556698	-0.424602	14.068659	-82.553477	-81.301208
34676		0.618596	-0.356652	-0.556737	-0.424479	14.026495	-82.556433	-81.242794
34677		0.618607	-0.356677	-0.556729	-0.424452	13.996546	-82.558530	-81.212592
34678		0.618564	-0.356800	-0.556655	-0.424509	13.945582	-82.560823	-81.179036
34679		0.618558	-0.356849	-0.556635	-0.424502	13.913211	-82.563376	-81.150779
34680		0.618507	-0.356949	-0.556576	-0.424569	13.888056	-82.564861	-81.141772
34681		0.618492	-0.357015	-0.556541	-0.424583	13.852500	-82.566925	-81.113912
34682		0.618479	-0.357081	-0.556503	-0.424595	13.814386	-82.568753	-81.083322
34683		0.618495	-0.357099	-0.556474	-0.424595	13.785096	-82.567435	-81.055897
34684		0.618522	-0.357105	-0.556446	-0.424588	13.754322	-82.565166	-81.025097
34685		0.618566	-0.357066	-0.556461	-0.424536	13.739922	-82.564288	-81.001928
34686		0.618648	-0.356980	-0.556516	-0.424417	13.723592	-82.564759	-80.965534
34687		0.618655	-0.356952	-0.556548	-0.424389	13.737641	-82.566191	-80.974101
34688		0.618575	-0.357042	-0.556495	-0.424499	13.748714	-82.566485	-81.004626
34689		0.618535	-0.357084	-0.556490	-0.424528	13.756092	-82.569216	-81.018750
34690		0.618467	-0.357175	-0.556484	-0.424558	13.753361	-82.576253	-81.027614
34691		0.618431	-0.357210	-0.556533	-0.424518	13.761083	-82.585410	-81.034362
34692		0.618469	-0.357133	-0.556651	-0.424373	13.780146	-82.593826	-81.031439
34693		0.618468	-0.357056	-0.556770	-0.424282	13.837929	-82.601212	-81.072536
34694		0.618425	-0.357020	-0.556867	-0.424248	13.907679	-82.608831	-81.135156
34695		0.618445	-0.356937	-0.556968	-0.424155	13.948962	-82.613864	-81.159118
34696		0.618390	-0.356937	-0.557032	-0.424152	14.003101	-82.620604	-81.212592
34697		0.618343	-0.356929	-0.557115	-0.424118	14.054642	-82.629274	-81.259675
34698		0.618270	-0.356966	-0.557171	-0.424121	14.099635	-82.638300	-81.308185
34699		0.618210	-0.357000	-0.557217	-0.424118	14.131593	-82.646320	-81.342816
34700		0.618210	-0.356987	-0.557255	-0.424079	14.141071	-82.650005	-81.347123
34701		0.618162	-0.357040	-0.557270	-0.424086	14.147616	-82.656225	-81.359178
34702		0.618131	-0.357106	-0.557268	-0.424077	14.127158	-82.662271	-81.344054
34703		0.618098	-0.357140	-0.557261	-0.424105	14.134023	-82.664049	-81.356888
34704		0.618088	-0.357129	-0.557301	-0.424079	14.152921	-82.667668	-81.371950
34705		0.618048	-0.357161	-0.557302	-0.424108	14.167845	-82.670137	-81.392767
34706		0.617984	-0.357209	-0.557285	-0.424182	14.194837	-82.671108	-81.431655
34707		0.617947	-0.357181	-0.557323	-0.424209	14.253616	-82.671931	-81.490308
34708		0.617965	-0.357103	-0.557395	-0.424154	14.295451	-82.673411	-81.519073
34709		0.617929	-0.357086	-0.557421	-0.424188	14.345254	-82.673719	-81.570568
34710		0.617884	-0.357095	-0.557420	-0.424247	14.383373	-82.673096	-81.615284
34711		0.617866	-0.357106	-0.557407	-0.424282	14.394049	-82.671949	-81.630464
34712		0.617802	-0.357185	-0.557352	-0.424380	14.397688	-82.671349	-81.651417
34713		0.617754	-0.357243	-0.557309	-0.424458	14.402398	-82.670285	-81.669453
34714		0.617716	-0.357274	-0.557279	-0.424526	14.417266	-82.668535	-81.694053
34715		0.617675	-0.357323	-0.557233	-0.424605	14.421107	-82.666521	-81.710434
34716		0.617607	-0.357400	-0.557190	-0.424696	14.430540	-82.667000	-81.736184
34717		0.617562	-0.357450	-0.557157	-0.424763	14.437495	-82.666601	-81.754627
34718		0.617503	-0.357492	-0.557125	-0.424855	14.464593	-82.665040	-81.794885
34719		0.617473	-0.357449	-0.557159	-0.424889	14.527877	-82.663846	-81.857364
34720		0.617377	-0.357499	-0.557147	-0.425003	14.586585	-82.664539	-81.931990
34721		0.617357	-0.357478	-0.557166	-0.425024	14.622439	-82.664107	-81.967857
34722		0.617347	-0.357449	-0.557201	-0.425017	14.654767	-82.665190	-81.996681
34723		0.617326	-0.357439	-0.557238	-0.425007	14.683467	-82.668324	-82.023260
34724		0.617345	-0.357393	-0.557261	-0.424989	14.700249	-82.666831	-82.033949
34725		0.617270	-0.357481	-0.557202	-0.425101	14.708501	-82.666251	-82.061653
34726		0.617170	-0.357580	-0.557146	-0.425236	14.732817	-82.666398	-82.108844
34727		0.617095	-0.357675	-0.557089	-0.425340	14.735707	-82.666842	-82.131079
34728		0.616984	-0.357816	-0.557013	-0.425482	14.738447	-82.668658	-82.161436
34729		0.616937	-0.357842	-0.557013	-0.425528	14.765292	-82.669991	-82.195171
34730		0.616953	-0.357752	-0.557067	-0.425510	14.819125	-82.667662	-82.238620
34731		0.616933	-0.357685	-0.557115	-0.425532	14.890906	-82.665853	-82.306118
34732		0.616957	-0.357589	-0.557186	-0.425486	14.941212	-82.665347	-82.342427
34733		0.616911	-0.357561	-0.557213	-0.425540	15.009352	-82.664277	-82.413263
34734		0.616944	-0.357448	-0.557298	-0.425476	15.063262	-82.664087	-82.449929
34735		0.616880	-0.357436	-0.557318	-0.425552	15.136303	-82.663197	-82.529164
34736		0.616827	-0.357408	-0.557368	-0.425588	15.212015	-82.664737	-82.605636
34737		0.616751	-0.357427	-0.557365	-0.425687	15.274222	-82.663719	-82.679347
34738		0.616753	-0.357370	-0.557410	-0.425671	15.315403	-82.663573	-82.713503
34739		0.616686	-0.357389	-0.557418	-0.425742	15.368342	-82.664322	-82.775113
34740		0.616606	-0.357432	-0.557393	-0.425854	15.415857	-82.663044	-82.837934
34741		0.616569	-0.357416	-0.557418	-0.425888	15.465615	-82.663203	-82.889370
34742		0.616551	-0.357387	-0.557455	-0.425890	15.505886	-82.664234	-82.926993
34743		0.616515	-0.357347	-0.557483	-0.425941	15.573323	-82.662026	-82.995458
34744		0.616453	-0.357331	-0.557489	-0.426036	15.647713	-82.658842	-83.077809
34745		0.616387	-0.357324	-0.557506	-0.426115	15.720193	-82.657941	-83.157349
34746		0.616297	-0.357354	-0.557508	-0.426217	15.786956	-82.658300	-83.236913
34747		0.616224	-0.357364	-0.557522	-0.426296	15.853340	-82.658605	-83.311997
34748		0.616233	-0.357244	-0.557631	-0.426242	15.937286	-82.659764	-83.378927
34749		0.616201	-0.357187	-0.557717	-0.426223	16.013859	-82.663618	-83.447926
34750		0.616189	-0.357123	-0.557785	-0.426204	16.074494	-82.665060	-83.500380
34751		0.616166	-0.357077	-0.557826	-0.426222	16.133169	-82.664469	-83.556376
34752		0.616121	-0.357060	-0.557837	-0.426287	16.191341	-82.662282	-83.619274
34753		0.616078	-0.357071	-0.557846	-0.426328	16.226034	-82.663125	-83.659102
34754		0.616022	-0.357116	-0.557815	-0.426412	16.247754	-82.661987	-83.693406
34755		0.615978	-0.357161	-0.557772	-0.426495	16.257920	-82.659740	-83.716117
34756		0.615973	-0.357148	-0.557755	-0.426534	16.271265	-82.655873	-83.732283
34757		0.615936	-0.357132	-0.557780	-0.426568	16.321027	-82.655928	-83.783713
34758		0.615998	-0.356979	-0.557916	-0.426429	16.376719	-82.658938	-83.810809
34759		0.615977	-0.356946	-0.557980	-0.426404	16.424321	-82.662854	-83.852607
34760		0.615980	-0.356893	-0.558038	-0.426368	16.462661	-82.664703	-83.882140
34761		0.615955	-0.356848	-0.558103	-0.426356	16.522163	-82.667363	-83.935958
34762		0.615970	-0.356730	-0.558182	-0.426330	16.597711	-82.664928	-83.997609
34763		0.615931	-0.356708	-0.558187	-0.426399	16.653326	-82.661441	-84.057896
34764		0.615932	-0.356678	-0.558203	-0.426401	16.674834	-82.660296	-84.076749
34765		0.615907	-0.356754	-0.558151	-0.426442	16.641691	-82.661053	-84.054987
34766		0.615903	-0.356740	-0.558179	-0.426423	16.657423	-82.663057	-84.067432
34767		0.615888	-0.356718	-0.558229	-0.426397	16.689793	-82.666596	-84.094925
34768		0.615843	-0.356716	-0.558286	-0.426391	16.738645	-82.672163	-84.142721
34769		0.615870	-0.356619	-0.558406	-0.426274	16.786631	-82.678201	-84.169668
34770		0.615846	-0.356604	-0.558437	-0.426280	16.822041	-82.679791	-84.204075
34771		0.615895	-0.356535	-0.558464	-0.426233	16.826543	-82.677238	-84.197332
34772		0.615993	-0.356414	-0.558532	-0.426104	16.820569	-82.676133	-84.167044
34773		0.615999	-0.356427	-0.558482	-0.426148	16.802437	-82.671379	-84.154688
34774		0.616065	-0.356363	-0.558510	-0.426071	16.785706	-82.670178	-84.124275
34775		0.616044	-0.356403	-0.558461	-0.426132	16.775409	-82.667396	-84.123939
34776		0.616128	-0.356329	-0.558489	-0.426034	16.746763	-82.666056	-84.078626
34777		0.616133	-0.356350	-0.558473	-0.426032	16.726525	-82.666403	-84.060081
34778		0.616241	-0.356213	-0.558562	-0.425873	16.722647	-82.666760	-84.027347
34779		0.616254	-0.356178	-0.558615	-0.425814	16.737052	-82.670421	-84.032450
34780		0.616369	-0.356024	-0.558734	-0.425620	16.739783	-82.673116	-84.001149
34781		0.616394	-0.356015	-0.558733	-0.425593	16.722033	-82.672882	-83.979841
34782		0.616430	-0.356009	-0.558698	-0.425592	16.689650	-82.668839	-83.947037
34783		0.616401	-0.356041	-0.558679	-0.425631	16.693703	-82.668956	-83.958055
34784		0.616381	-0.356041	-0.558680	-0.425659	16.713728	-82.668272	-83.980789
34785		0.616358	-0.356047	-0.558702	-0.425660	16.733766	-82.670895	-84.001324
34786		0.616309	-0.356085	-0.558694	-0.425709	16.753459	-82.672360	-84.029497
34787		0.616326	-0.356061	-0.558721	-0.425668	16.755133	-82.673969	-84.024745
34788		0.616374	-0.355950	-0.558815	-0.425569	16.792123	-82.675593	-84.041221
34789		0.616394	-0.355894	-0.558862	-0.425525	16.815573	-82.676202	-84.054789
34790		0.616368	-0.355889	-0.558883	-0.425538	16.845525	-82.677542	-84.085588
34791		0.616372	-0.355885	-0.558901	-0.425513	16.845581	-82.679540	-84.082707
34792		0.616358	-0.355923	-0.558872	-0.425539	16.829864	-82.679571	-84.073240
34793		0.616346	-0.355970	-0.558836	-0.425564	16.805553	-82.679658	-84.055938
34794		0.616358	-0.355986	-0.558806	-0.425573	16.780990	-82.677968	-84.033818
34795		0.616340	-0.356035	-0.558763	-0.425614	16.760968	-82.677197	-84.022652
34796		0.616255	-0.356135	-0.558715	-0.425718	16.770959	-82.678818	-84.052479
34797		0.616269	-0.356129	-0.558719	-0.425696	16.761085	-82.679322	-84.039843
34798		0.616315	-0.356041	-0.558811	-0.425583	16.782913	-82.683195	-84.041906
34799		0.616366	-0.355958	-0.558870	-0.425502	16.795824	-82.683525	-84.038804
34800		0.616317	-0.355997	-0.558876	-0.425531	16.815410	-82.686948	-84.064921
34801		0.616310	-0.356009	-0.558910	-0.425488	16.815163	-82.692537	-84.061354
34802		0.616320	-0.356003	-0.558943	-0.425433	16.809647	-82.696753	-84.049753
34803		0.616287	-0.356086	-0.558925	-0.425437	16.780670	-82.702527	-84.028946
34804		0.616343	-0.356018	-0.558978	-0.425343	16.776415	-82.703953	-84.008786
34805		0.616350	-0.356013	-0.559007	-0.425298	16.773736	-82.707650	-84.001221
34806		0.616375	-0.355952	-0.559085	-0.425211	16.796165	-82.712009	-84.008960
34807		0.616364	-0.355961	-0.559114	-0.425179	16.800605	-82.716643	-84.011049
34808		0.616354	-0.355944	-0.559143	-0.425171	16.825046	-82.718089	-84.032882
34809		0.616336	-0.355954	-0.559131	-0.425206	16.835623	-82.716866	-84.047906
34810		0.616379	-0.355879	-0.559191	-0.425126	16.849471	-82.718043	-84.046663
34811		0.616332	-0.355889	-0.559220	-0.425149	16.890359	-82.721187	-84.090593
34812		0.616257	-0.355906	-0.559287	-0.425155	16.955739	-82.729220	-84.157828
34813		0.616218	-0.355876	-0.559357	-0.425143	17.018384	-82.733696	-84.216280
34814		0.616159	-0.355894	-0.559370	-0.425198	17.066048	-82.735046	-84.270970
34815		0.616127	-0.355840	-0.559442	-0.425194	17.139833	-82.737203	-84.339033
34816		0.616162	-0.355720	-0.559570	-0.425076	17.198821	-82.741946	-84.374598
34817		0.616110	-0.355729	-0.559618	-0.425080	17.245808	-82.747400	-84.422602
34818		0.616070	-0.355735	-0.559642	-0.425102	17.283188	-82.749659	-84.462567
34819		0.616027	-0.355737	-0.559657	-0.425143	17.325809	-82.750115	-84.509400
34820		0.616000	-0.355706	-0.559681	-0.425176	17.377119	-82.748722	-84.560984
34821		0.615932	-0.355681	-0.559735	-0.425225	17.466132	-82.750229	-84.652252
34822		0.615904	-0.355646	-0.559764	-0.425255	17.520972	-82.749044	-84.706646
34823		0.615857	-0.355630	-0.559803	-0.425286	17.581706	-82.750440	-84.768810
34824		0.615742	-0.355666	-0.559818	-0.425403	17.671601	-82.751953	-84.873519
34825		0.615684	-0.355620	-0.559901	-0.425417	17.768254	-82.755340	-84.966911
34826		0.615646	-0.355527	-0.559999	-0.425419	17.878844	-82.756194	-85.068666
34827		0.615598	-0.355472	-0.560068	-0.425444	17.970404	-82.757010	-85.157248
34828		0.615590	-0.355381	-0.560164	-0.425406	18.050518	-82.758863	-85.224707
34829		0.615546	-0.355337	-0.560207	-0.425449	18.128937	-82.757636	-85.303034
34830		0.615493	-0.355335	-0.560215	-0.425516	18.183941	-82.756354	-85.364556
34831		0.615448	-0.355376	-0.560188	-0.425584	18.198476	-82.755559	-85.389661
34832		0.615459	-0.355314	-0.560248	-0.425540	18.235732	-82.756880	-85.416531
34833		0.615395	-0.355341	-0.560262	-0.425591	18.280540	-82.759319	-85.468847
34834		0.615268	-0.355452	-0.560215	-0.425743	18.324369	-82.760612	-85.538322
34835		0.615214	-0.355428	-0.560260	-0.425783	18.398857	-82.761440	-85.614262
34836		0.615214	-0.355355	-0.560348	-0.425729	18.457035	-82.764634	-85.659873
34837		0.615160	-0.355347	-0.560388	-0.425760	18.519553	-82.766837	-85.724594
34838		0.615120	-0.355327	-0.560428	-0.425781	18.575675	-82.768260	-85.780769
34839		0.615076	-0.355310	-0.560486	-0.425785	18.636687	-82.771963	-85.840291
34840		0.615014	-0.355306	-0.560555	-0.425785	18.705227	-82.778146	-85.908259
34841		0.614972	-0.355312	-0.560622	-0.425754	18.747164	-82.786022	-85.947407
34842		0.615003	-0.355248	-0.560723	-0.425629	18.769092	-82.793403	-85.950580
34843		0.614962	-0.355302	-0.560730	-0.425634	18.771511	-82.798898	-85.958489
34844		0.614958	-0.355309	-0.560752	-0.425604	18.770661	-82.802525	-85.955365
34845		0.614908	-0.355400	-0.560725	-0.425636	18.753240	-82.807499	-85.949705
34846		0.614953	-0.355347	-0.560805	-0.425509	18.751258	-82.813964	-85.929905
34847		0.614884	-0.355417	-0.560849	-0.425494	18.773482	-82.825103	-85.956949
34848		0.614802	-0.355497	-0.560873	-0.425514	18.799043	-82.834200	-85.991882
34849		0.614770	-0.355516	-0.560930	-0.425469	18.821006	-82.842763	-86.011007
34850		0.614799	-0.355437	-0.561045	-0.425340	18.855651	-82.850187	-86.025078
34851		0.614798	-0.355400	-0.561114	-0.425282	18.888651	-82.854967	-86.048568
34852		0.614799	-0.355349	-0.561228	-0.425173	18.931607	-82.864289	-86.075582
34853		0.614762	-0.355347	-0.561324	-0.425103	18.976864	-82.875236	-86.113273
34854		0.614725	-0.355376	-0.561361	-0.425082	18.995838	-82.882133	-86.132811
34855		0.614629	-0.355461	-0.561388	-0.425115	19.032870	-82.891570	-86.180988
34856		0.614551	-0.355557	-0.561379	-0.425158	19.041378	-82.898416	-86.202823
34857		0.614476	-0.355640	-0.561380	-0.425197	19.057210	-82.904968	-86.230162
34858		0.614464	-0.355625	-0.561428	-0.425162	19.083342	-82.909200	-86.251347
34859		0.614423	-0.355630	-0.561471	-0.425161	19.124536	-82.913742	-86.292740
34860		0.614346	-0.355681	-0.561497	-0.425196	19.167913	-82.919795	-86.344192
34861		0.614328	-0.355677	-0.561547	-0.425158	19.192354	-82.925386	-86.364345
34862		0.614378	-0.355581	-0.561653	-0.425027	19.219174	-82.930353	-86.368803
34863		0.614353	-0.355596	-0.561693	-0.424997	19.235721	-82.936481	-86.383664
34864		0.614392	-0.355492	-0.561819	-0.424863	19.281321	-82.942642	-86.405763
34865		0.614318	-0.355490	-0.561913	-0.424846	19.364807	-82.951864	-86.487064
34866		0.614253	-0.355475	-0.562004	-0.424833	19.448789	-82.959390	-86.567970
34867		0.614185	-0.355482	-0.562049	-0.424865	19.516698	-82.963324	-86.639601
34868		0.614136	-0.355503	-0.562049	-0.424919	19.551716	-82.963496	-86.681804
34869		0.614109	-0.355459	-0.562095	-0.424933	19.614564	-82.963270	-86.741784
34870		0.614024	-0.355552	-0.562028	-0.425068	19.629807	-82.961504	-86.779277
34871		0.614008	-0.355572	-0.562021	-0.425082	19.631063	-82.962263	-86.783887
34872		0.613889	-0.355727	-0.561934	-0.425240	19.633147	-82.963582	-86.816365
34873		0.613837	-0.355805	-0.561884	-0.425315	19.625877	-82.963970	-86.823984
34874		0.613695	-0.355988	-0.561795	-0.425486	19.631640	-82.967316	-86.864146
34875		0.613593	-0.356084	-0.561785	-0.425565	19.664946	-82.972871	-86.914323
34876		0.613565	-0.356083	-0.561827	-0.425552	19.698648	-82.977084	-86.946414
34877		0.613521	-0.356108	-0.561839	-0.425577	19.725982	-82.979807	-86.978594
34878		0.613422	-0.356195	-0.561788	-0.425715	19.760726	-82.978766	-87.035286
34879		0.613433	-0.356161	-0.561798	-0.425714	19.774554	-82.976553	-87.045718
34880		0.613407	-0.356134	-0.561829	-0.425734	19.823909	-82.976269	-87.094478
34881		0.613403	-0.356093	-0.561870	-0.425719	19.860317	-82.976697	-87.125377
34882		0.613379	-0.356125	-0.561851	-0.425753	19.860926	-82.976860	-87.132436
34883		0.613373	-0.356130	-0.561852	-0.425756	19.863283	-82.977316	-87.135545
34884		0.613306	-0.356197	-0.561824	-0.425833	19.881250	-82.978593	-87.167485
34885		0.613276	-0.356240	-0.561824	-0.425841	19.881111	-82.982304	-87.172158
34886		0.613253	-0.356267	-0.561810	-0.425869	19.883726	-82.982642	-87.180128
34887		0.613302	-0.356238	-0.561799	-0.425836	19.853103	-82.979950	-87.143635
34888		0.613318	-0.356230	-0.561780	-0.425845	19.840942	-82.977226	-87.131642
34889		0.613370	-0.356190	-0.561794	-0.425786	19.817808	-82.976634	-87.098861
34890		0.613454	-0.356107	-0.561844	-0.425668	19.796037	-82.977279	-87.057490
34891		0.613474	-0.356116	-0.561875	-0.425591	19.771835	-82.983430	-87.026422
34892		0.613398	-0.356290	-0.561786	-0.425672	19.715466	-82.988762	-86.994707
34893		0.613464	-0.356318	-0.561743	-0.425610	19.623623	-82.989406	-86.899434
34894		0.613519	-0.356381	-0.561691	-0.425548	19.516906	-82.992319	-86.792709
34895		0.613592	-0.356447	-0.561617	-0.425483	19.386970	-82.993699	-86.662880
34896		0.613670	-0.356501	-0.561558	-0.425406	19.263485	-82.995440	-86.537019
34897		0.613740	-0.356548	-0.561484	-0.425361	19.150395	-82.994359	-86.424260
34898		0.613815	-0.356583	-0.561404	-0.425330	19.041915	-82.990982	-86.316194
34899		0.613899	-0.356605	-0.561332	-0.425284	18.933111	-82.987631	-86.205311
34900		0.613930	-0.356714	-0.561191	-0.425335	18.812026	-82.982918	-86.100017
34901		0.613994	-0.356748	-0.561115	-0.425315	18.715930	-82.979455	-86.005354
34902		0.614125	-0.356708	-0.561072	-0.425215	18.606624	-82.974701	-85.882621
34903		0.614221	-0.356704	-0.560996	-0.425181	18.507311	-82.968065	-85.779801
34904		0.614245	-0.356773	-0.560860	-0.425268	18.422657	-82.958861	-85.710714
34905		0.614335	-0.356774	-0.560762	-0.425265	18.323757	-82.949841	-85.612102
34906		0.614422	-0.356760	-0.560682	-0.425257	18.240776	-82.941049	-85.527281
34907		0.614514	-0.356725	-0.560620	-0.425236	18.168900	-82.932396	-85.450292
34908		0.614638	-0.356649	-0.560597	-0.425150	18.096658	-82.925602	-85.362547
34909		0.614737	-0.356600	-0.560554	-0.425106	18.030154	-82.918202	-85.287243
34910		0.614776	-0.356617	-0.560452	-0.425168	17.972049	-82.908200	-85.237315
34911		0.614888	-0.356559	-0.560406	-0.425115	17.897947	-82.899953	-85.152762
34912		0.614937	-0.356581	-0.560331	-0.425124	17.827832	-82.894462	-85.085914
34913		0.615022	-0.356554	-0.560271	-0.425104	17.758379	-82.886684	-85.012126
34914		0.615174	-0.356452	-0.560240	-0.425010	17.678238	-82.876961	-84.913330
34915		0.615280	-0.356381	-0.560192	-0.424981	17.621652	-82.866430	-84.847388
34916		0.615384	-0.356271	-0.560217	-0.424890	17.599176	-82.861212	-84.805485
34917		0.615503	-0.356141	-0.560275	-0.424750	17.576899	-82.858752	-84.756981
34918		0.615589	-0.356060	-0.560270	-0.424698	17.549069	-82.852301	-84.716551
34919		0.615767	-0.355833	-0.560336	-0.424543	17.540388	-82.841956	-84.671028
34920		0.615957	-0.355607	-0.560388	-0.424389	17.518285	-82.830468	-84.612434
34921		0.616124	-0.355453	-0.560362	-0.424310	17.463077	-82.815838	-84.535086
34922		0.616219	-0.355405	-0.560268	-0.424336	17.399056	-82.801533	-84.469534
34923		0.616321	-0.355338	-0.560217	-0.424311	17.343378	-82.791058	-84.405376
34924		0.616408	-0.355301	-0.560144	-0.424311	17.280204	-82.780493	-84.339059
34925		0.616517	-0.355230	-0.560107	-0.424263	17.222496	-82.771592	-84.270048
34926		0.616587	-0.355235	-0.560000	-0.424298	17.143675	-82.760580	-84.195611
34927		0.616744	-0.355119	-0.559964	-0.424215	17.071348	-82.748604	-84.104416
34928		0.616852	-0.355103	-0.559854	-0.424214	16.970505	-82.736370	-84.002492
34929		0.617005	-0.355020	-0.559799	-0.424135	16.876973	-82.725374	-83.893559
34930		0.617094	-0.355049	-0.559649	-0.424180	16.762697	-82.711973	-83.787114
34931		0.617194	-0.355085	-0.559492	-0.424210	16.630690	-82.699002	-83.662079
34932		0.617230	-0.355196	-0.559288	-0.424334	16.507355	-82.685694	-83.562210
34933		0.617303	-0.355273	-0.559135	-0.424366	16.373644	-82.676757	-83.439429
34934		0.617323	-0.355372	-0.559004	-0.424426	16.276530	-82.671142	-83.358095
34935		0.617421	-0.355339	-0.558956	-0.424374	16.202309	-82.664782	-83.275850
34936		0.617513	-0.355309	-0.558892	-0.424350	16.131806	-82.656073	-83.200437
34937		0.617642	-0.355224	-0.558865	-0.424269	16.066666	-82.647719	-83.119532
34938		0.617761	-0.355119	-0.558887	-0.424154	16.026267	-82.643152	-83.057879
34939		0.617848	-0.355065	-0.558879	-0.424084	15.980124	-82.639173	-82.999851
34940		0.617917	-0.355070	-0.558817	-0.424060	15.906463	-82.634038	-82.924476
34941		0.618009	-0.355071	-0.558732	-0.424038	15.812542	-82.626148	-82.828916
34942		0.618028	-0.355125	-0.558634	-0.424094	15.752384	-82.619746	-82.779723
34943		0.618118	-0.355077	-0.558615	-0.424028	15.698058	-82.615167	-82.714479
34944		0.618147	-0.355080	-0.558594	-0.424011	15.666790	-82.613722	-82.681843
34945		0.618277	-0.354956	-0.558640	-0.423865	15.631669	-82.610596	-82.620590
34946		0.618349	-0.354929	-0.558622	-0.423806	15.579511	-82.607781	-82.560205
34947		0.618457	-0.354849	-0.558657	-0.423669	15.531504	-82.607328	-82.491086
34948		0.618519	-0.354835	-0.558638	-0.423616	15.480220	-82.605440	-82.433360
34949		0.618615	-0.354807	-0.558630	-0.423510	15.405814	-82.604732	-82.345870
34950		0.618571	-0.355011	-0.558471	-0.423612	15.294015	-82.604799	-82.263978
34951		0.618630	-0.355058	-0.558418	-0.423557	15.199256	-82.605004	-82.168439
34952		0.618612	-0.355182	-0.558325	-0.423602	15.122696	-82.605816	-82.108224
34953		0.618649	-0.355204	-0.558314	-0.423542	15.067984	-82.608229	-82.049762
34954		0.618598	-0.355303	-0.558278	-0.423581	15.043700	-82.612688	-82.038761
34955		0.618637	-0.355288	-0.558333	-0.423465	15.015698	-82.619685	-81.997609
34956		0.618588	-0.355354	-0.558311	-0.423510	15.014552	-82.622344	-82.007194
34957		0.618655	-0.355241	-0.558396	-0.423394	15.032684	-82.623584	-82.003045
34958		0.618608	-0.355282	-0.558378	-0.423454	15.048926	-82.623948	-82.029005
34959		0.618628	-0.355260	-0.558409	-0.423401	15.045417	-82.626446	-82.018135
34960		0.618551	-0.355407	-0.558333	-0.423492	15.010776	-82.629892	-82.006455
34961		0.618548	-0.355461	-0.558310	-0.423482	14.972418	-82.632717	-81.972250
34962		0.618510	-0.355538	-0.558273	-0.423520	14.951029	-82.635196	-81.962006
34963		0.618510	-0.355541	-0.558281	-0.423507	14.948735	-82.636544	-81.958674
34964		0.618448	-0.355578	-0.558275	-0.423575	14.983534	-82.637622	-82.003662
34965		0.618437	-0.355554	-0.558313	-0.423561	15.012059	-82.639685	-82.028368
34966		0.618333	-0.355640	-0.558264	-0.423704	15.050823	-82.639183	-82.089533
34967		0.618332	-0.355618	-0.558239	-0.423758	15.069955	-82.633264	-82.111968
34968		0.618249	-0.355701	-0.558139	-0.423940	15.090234	-82.626368	-82.158460
34969		0.618196	-0.355751	-0.558084	-0.424047	15.105008	-82.622764	-82.188653
34970		0.618116	-0.355834	-0.558035	-0.424160	15.122802	-82.622526	-82.225479
34971		0.618029	-0.355925	-0.557985	-0.424277	15.140515	-82.622960	-82.263443
34972		0.617927	-0.356017	-0.557913	-0.424441	15.172368	-82.620142	-82.320400
34973		0.617865	-0.356052	-0.557875	-0.424553	15.208966	-82.616758	-82.371469
34974		0.617721	-0.356154	-0.557806	-0.424768	15.275051	-82.613852	-82.468532
34975		0.617671	-0.356131	-0.557832	-0.424827	15.343236	-82.612936	-82.540246
34976		0.617603	-0.356104	-0.557860	-0.424910	15.431468	-82.611281	-82.634058
34977		0.617570	-0.356031	-0.557908	-0.424957	15.521077	-82.608219	-82.721216
34978		0.617555	-0.355931	-0.557950	-0.425006	15.611539	-82.602151	-82.807070
34979		0.617512	-0.355849	-0.557994	-0.425082	15.717430	-82.597015	-82.912477
34980		0.617427	-0.355845	-0.558020	-0.425173	15.805380	-82.597010	-83.008995
34981		0.617379	-0.355836	-0.558037	-0.425227	15.859622	-82.596483	-83.067625
34982		0.617283	-0.355882	-0.558014	-0.425359	15.920954	-82.595134	-83.146280
34983		0.617233	-0.355867	-0.558011	-0.425448	15.981634	-82.591132	-83.214387
34984		0.617149	-0.355894	-0.557959	-0.425615	16.044208	-82.584129	-83.296204
34985		0.617134	-0.355854	-0.557947	-0.425686	16.088998	-82.577407	-83.344353
34986		0.617127	-0.355828	-0.557922	-0.425750	16.114798	-82.570977	-83.374143
34987		0.617156	-0.355756	-0.557911	-0.425783	16.139684	-82.562271	-83.395594
34988		0.617168	-0.355703	-0.557887	-0.425841	16.166811	-82.553516	-83.423577
34989		0.617207	-0.355608	-0.557912	-0.425832	16.200053	-82.547472	-83.446876
34990		0.617263	-0.355527	-0.557949	-0.425769	16.205441	-82.545355	-83.438373
34991		0.617281	-0.355459	-0.557967	-0.425777	16.238179	-82.540685	-83.465424
34992		0.617305	-0.355397	-0.557961	-0.425802	16.260448	-82.533750	-83.484421
34993		0.617340	-0.355316	-0.557978	-0.425796	16.286192	-82.528100	-83.501957
34994		0.617408	-0.355210	-0.558008	-0.425746	16.298229	-82.522629	-83.499042
34995		0.617501	-0.355080	-0.558052	-0.425664	16.304294	-82.517112	-83.484558
34996		0.617589	-0.354981	-0.558030	-0.425646	16.290288	-82.506303	-83.459742
34997		0.617713	-0.354804	-0.558049	-0.425589	16.299152	-82.493289	-83.446268
34998		0.617852	-0.354674	-0.558007	-0.425551	16.258082	-82.478200	-83.389529
34999		0.617974	-0.354556	-0.557965	-0.425527	16.224770	-82.463782	-83.342973
35000		0.618100	-0.354454	-0.557907	-0.425504	16.175895	-82.449171	-83.282617
35001		0.618219	-0.354348	-0.557865	-0.425476	16.137421	-82.435887	-83.231662
35002		0.618356	-0.354208	-0.557840	-0.425426	16.106362	-82.421778	-83.182630
35003		0.618509	-0.354045	-0.557820	-0.425365	16.077157	-82.406390	-83.132329
35004		0.618648	-0.353895	-0.557803	-0.425311	16.051759	-82.392194	-83.087653
35005		0.618814	-0.353721	-0.557787	-0.425234	16.017552	-82.376664	-83.029726
35006		0.618943	-0.353585	-0.557765	-0.425189	15.992093	-82.363058	-82.987285
35007		0.619051	-0.353487	-0.557713	-0.425181	15.958528	-82.349032	-82.943963
35008		0.619103	-0.353451	-0.557621	-0.425256	15.933485	-82.334632	-82.923311
35009		0.619167	-0.353376	-0.557575	-0.425286	15.925965	-82.322317	-82.911963
35010		0.619229	-0.353290	-0.557549	-0.425301	15.929308	-82.311499	-82.908918
35011		0.619312	-0.353135	-0.557561	-0.425293	15.961678	-82.298593	-82.925948
35012		0.619413	-0.352938	-0.557618	-0.425235	16.008067	-82.287783	-82.948059
35013		0.619539	-0.352699	-0.557704	-0.425136	16.060779	-82.276927	-82.968348
35014		0.619632	-0.352491	-0.557807	-0.425038	16.123375	-82.270706	-83.001376
35015		0.619673	-0.352328	-0.557891	-0.425003	16.202171	-82.265057	-83.061219
35016		0.619666	-0.352243	-0.557926	-0.425039	16.270681	-82.259759	-83.125153
35017		0.619650	-0.352186	-0.557949	-0.425080	16.327526	-82.255741	-83.180584
35018		0.619618	-0.352117	-0.558000	-0.425114	16.406873	-82.253724	-83.256721
35019		0.619566	-0.352038	-0.558092	-0.425136	16.514548	-82.254924	-83.358708
35020		0.619507	-0.351950	-0.558222	-0.425124	16.635857	-82.260056	-83.470084
35021		0.619464	-0.351790	-0.558415	-0.425066	16.794767	-82.266064	-83.607581
35022		0.619470	-0.351622	-0.558580	-0.424979	16.911569	-82.269249	-83.699314
35023		0.619472	-0.351445	-0.558746	-0.424905	17.039546	-82.271289	-83.802876
35024		0.619499	-0.351236	-0.558937	-0.424787	17.165847	-82.274135	-83.897211
35025		0.619445	-0.351142	-0.559079	-0.424755	17.286897	-82.280349	-84.005744
35026		0.619342	-0.351131	-0.559170	-0.424795	17.396030	-82.287031	-84.117426
35027		0.619228	-0.351117	-0.559274	-0.424836	17.517659	-82.294793	-84.241376
35028		0.619094	-0.351115	-0.559376	-0.424899	17.650243	-82.302729	-84.379461
35029		0.619014	-0.351067	-0.559477	-0.424923	17.763528	-82.307447	-84.490136
35030		0.618939	-0.351029	-0.559567	-0.424944	17.864654	-82.312065	-84.589457
35031		0.618895	-0.350939	-0.559729	-0.424869	17.975323	-82.321675	-84.683693
35032		0.618839	-0.350865	-0.559893	-0.424796	18.087421	-82.332706	-84.780928
35033		0.618806	-0.350797	-0.560016	-0.424738	18.171638	-82.339956	-84.852598
35034		0.618746	-0.350811	-0.560065	-0.424750	18.221519	-82.345610	-84.904811
35035		0.618694	-0.350828	-0.560085	-0.424784	18.259239	-82.348130	-84.947467
35036		0.618672	-0.350812	-0.560101	-0.424808	18.292492	-82.347516	-84.981427
35037		0.618617	-0.350804	-0.560143	-0.424840	18.352144	-82.349904	-85.043309
35038		0.618581	-0.350785	-0.560199	-0.424835	18.403090	-82.353614	-85.091835
35039		0.618552	-0.350755	-0.560256	-0.424826	18.454058	-82.356516	-85.138814
35040		0.618525	-0.350768	-0.560269	-0.424838	18.471341	-82.358689	-85.158462
35041		0.618522	-0.350771	-0.560265	-0.424845	18.472373	-82.358368	-85.160456
35042		0.618521	-0.350813	-0.560236	-0.424850	18.442580	-82.359317	-85.135245
35043		0.618488	-0.350909	-0.560175	-0.424900	18.404692	-82.360847	-85.111482
35044		0.618423	-0.351059	-0.560056	-0.425027	18.356502	-82.359576	-85.090204
35045		0.618409	-0.351167	-0.559929	-0.425125	18.289207	-82.354579	-85.043192
35046		0.618420	-0.351277	-0.559805	-0.425183	18.196856	-82.351082	-84.967275
35047		0.618449	-0.351351	-0.559710	-0.425204	18.113015	-82.348164	-84.892917
35048		0.618481	-0.351420	-0.559610	-0.425232	18.030573	-82.344071	-84.820001
35049		0.618482	-0.351511	-0.559521	-0.425271	17.961426	-82.342823	-84.763628
35050		0.618467	-0.351645	-0.559393	-0.425351	17.876574	-82.340476	-84.699660
35051		0.618449	-0.351757	-0.559295	-0.425415	17.812132	-82.339538	-84.652360
35052		0.618393	-0.351903	-0.559220	-0.425473	17.760207	-82.344113	-84.620086
35053		0.618376	-0.351964	-0.559208	-0.425464	17.733520	-82.348752	-84.598282
35054		0.618381	-0.351980	-0.559217	-0.425431	17.717823	-82.352083	-84.580713
35055		0.618366	-0.352011	-0.559240	-0.425396	17.710704	-82.358197	-84.572941
35056		0.618348	-0.352045	-0.559235	-0.425401	17.703600	-82.360635	-84.569581
35057		0.618345	-0.352083	-0.559216	-0.425400	17.679347	-82.362310	-84.548784
35058		0.618306	-0.352161	-0.559186	-0.425432	17.661202	-82.365715	-84.541162
35059		0.618271	-0.352218	-0.559178	-0.425444	17.653031	-82.369946	-84.539635
35060		0.618199	-0.352321	-0.559137	-0.425518	17.648087	-82.373318	-84.551727
35061		0.618165	-0.352381	-0.559122	-0.425538	17.638015	-82.376811	-84.549277
35062		0.618162	-0.352406	-0.559125	-0.425517	17.623772	-82.380051	-84.535365
35063		0.618168	-0.352402	-0.559154	-0.425474	17.621683	-82.383722	-84.528480
35064		0.618162	-0.352393	-0.559198	-0.425432	17.635169	-82.388334	-84.536834
35065		0.618150	-0.352360	-0.559272	-0.425379	17.672999	-82.393924	-84.565983
35066		0.618097	-0.352377	-0.559317	-0.425384	17.713937	-82.399682	-84.608860
35067		0.618062	-0.352417	-0.559344	-0.425366	17.720228	-82.406550	-84.617025
35068		0.618014	-0.352512	-0.559311	-0.425399	17.697520	-82.411218	-84.606523
35069		0.618005	-0.352557	-0.559271	-0.425429	17.673564	-82.410583	-84.589841
35070		0.617989	-0.352616	-0.559238	-0.425446	17.645326	-82.412424	-84.568974
35071		0.617990	-0.352683	-0.559182	-0.425462	17.595083	-82.412719	-84.526860
35072		0.617985	-0.352748	-0.559140	-0.425472	17.552728	-82.414325	-84.491586
35073		0.617985	-0.352810	-0.559099	-0.425473	17.506240	-82.416087	-84.451273
35074		0.617995	-0.352856	-0.559066	-0.425465	17.463412	-82.417226	-84.412086
35075		0.618008	-0.352878	-0.559053	-0.425444	17.433854	-82.418659	-84.382502
35076		0.617991	-0.352912	-0.559040	-0.425457	17.425501	-82.420174	-84.378746
35077		0.617988	-0.352920	-0.559045	-0.425449	17.423443	-82.421639	-84.376576
35078		0.617975	-0.352928	-0.559068	-0.425432	17.431164	-82.424993	-84.383238
35079		0.617968	-0.352929	-0.559083	-0.425420	17.437486	-82.426992	-84.388475
35080		0.617988	-0.352894	-0.559130	-0.425359	17.444749	-82.429950	-84.386175
35081		0.618009	-0.352887	-0.559134	-0.425329	17.429548	-82.430539	-84.367471
35082		0.618018	-0.352916	-0.559101	-0.425336	17.399375	-82.429839	-84.340714
35083		0.618025	-0.352943	-0.559075	-0.425337	17.372175	-82.429697	-84.316323
35084		0.618006	-0.353013	-0.559047	-0.425343	17.339327	-82.433264	-84.290700
35085		0.617993	-0.353066	-0.559020	-0.425354	17.313747	-82.435250	-84.271205
35086		0.617975	-0.353103	-0.558997	-0.425380	17.303393	-82.435678	-84.267024
35087		0.617955	-0.353154	-0.558955	-0.425422	17.285242	-82.435046	-84.257899
35088		0.617919	-0.353212	-0.558913	-0.425481	17.277004	-82.434684	-84.261146
35089		0.617885	-0.353260	-0.558887	-0.425525	17.274904	-82.435343	-84.267869
35090		0.617849	-0.353279	-0.558892	-0.425554	17.295990	-82.436933	-84.293633
35091		0.617831	-0.353250	-0.558953	-0.425524	17.336139	-82.440966	-84.327929
35092		0.617808	-0.353187	-0.559050	-0.425482	17.406684	-82.445828	-84.387986
35093		0.617800	-0.353143	-0.559118	-0.425441	17.447971	-82.449524	-84.420805
35094		0.617769	-0.353126	-0.559178	-0.425422	17.493188	-82.454232	-84.462300
35095		0.617741	-0.353125	-0.559211	-0.425420	17.521852	-82.457418	-84.490552
35096		0.617694	-0.353190	-0.559203	-0.425444	17.520950	-82.462070	-84.498177
35097		0.617635	-0.353258	-0.559212	-0.425462	17.529717	-82.468657	-84.515029
35098		0.617576	-0.353332	-0.559216	-0.425480	17.533627	-82.475435	-84.527524
35099		0.617546	-0.353396	-0.559198	-0.425495	17.516941	-82.479140	-84.518463
35100		0.617508	-0.353436	-0.559193	-0.425523	17.524616	-82.481554	-84.532508
35101		0.617463	-0.353454	-0.559236	-0.425518	17.557371	-82.487493	-84.566275
35102		0.617412	-0.353482	-0.559267	-0.425527	17.588281	-82.492916	-84.600547
35103		0.617370	-0.353471	-0.559315	-0.425534	17.638368	-82.496319	-84.650128
35104		0.617312	-0.353497	-0.559338	-0.425566	17.677654	-82.500141	-84.694965
35105		0.617252	-0.353524	-0.559384	-0.425570	17.718078	-82.506927	-84.738045
35106		0.617201	-0.353544	-0.559424	-0.425574	17.755109	-82.512597	-84.777292
35107		0.617170	-0.353549	-0.559455	-0.425576	17.783770	-82.515871	-84.806415
35108		0.617127	-0.353577	-0.559457	-0.425612	17.805739	-82.517662	-84.834493
35109		0.617096	-0.353587	-0.559465	-0.425637	17.828668	-82.518727	-84.860821
35110		0.617042	-0.353615	-0.559480	-0.425674	17.862254	-82.521705	-84.900600
35111		0.616980	-0.353657	-0.559487	-0.425720	17.892981	-82.524905	-84.939745
35112		0.616907	-0.353706	-0.559468	-0.425809	17.928363	-82.525137	-84.988587
35113		0.616873	-0.353707	-0.559471	-0.425854	17.960938	-82.524190	-85.025652
35114		0.616862	-0.353680	-0.559500	-0.425854	17.992134	-82.524528	-85.054199
35115		0.616814	-0.353681	-0.559535	-0.425876	18.040005	-82.527365	-85.104284
35116		0.616774	-0.353664	-0.559577	-0.425893	18.092855	-82.529287	-85.156991
35117		0.616733	-0.353641	-0.559614	-0.425924	18.151345	-82.529775	-85.216172
35118		0.616696	-0.353652	-0.559605	-0.425979	18.178484	-82.528356	-85.249925
35119		0.616659	-0.353651	-0.559603	-0.426036	18.215653	-82.526439	-85.292567
35120		0.616619	-0.353662	-0.559600	-0.426089	18.246024	-82.525638	-85.329219
35121		0.616589	-0.353669	-0.559592	-0.426137	18.270031	-82.524147	-85.358692
35122		0.616606	-0.353636	-0.559584	-0.426151	18.276409	-82.519878	-85.363365
35123		0.616583	-0.353628	-0.559572	-0.426207	18.303979	-82.516370	-85.395745
35124		0.616556	-0.353654	-0.559510	-0.426305	18.308947	-82.509968	-85.413056
35125		0.616554	-0.353637	-0.559494	-0.426344	18.322684	-82.505717	-85.429091
35126		0.616558	-0.353603	-0.559493	-0.426367	18.342209	-82.501780	-85.447722
35127		0.616538	-0.353591	-0.559507	-0.426388	18.371012	-82.501416	-85.477416
35128		0.616534	-0.353569	-0.559511	-0.426405	18.389699	-82.499309	-85.495825
35129		0.616559	-0.353522	-0.559509	-0.426412	18.399080	-82.494498	-85.501398
35130		0.616576	-0.353491	-0.559481	-0.426449	18.402685	-82.487924	-85.505888
35131		0.616608	-0.353443	-0.559478	-0.426447	18.405843	-82.483220	-85.504365
35132		0.616645	-0.353403	-0.559470	-0.426437	18.397327	-82.479020	-85.491154
35133		0.616674	-0.353375	-0.559437	-0.426462	18.387439	-82.472559	-85.481262
35134		0.616738	-0.353315	-0.559413	-0.426451	18.366540	-82.465072	-85.453811
35135		0.616794	-0.353266	-0.559388	-0.426443	18.345605	-82.458379	-85.427635
35136		0.616852	-0.353204	-0.559386	-0.426413	18.333296	-82.453284	-85.406571
35137		0.616907	-0.353154	-0.559392	-0.426367	18.315354	-82.450579	-85.379359
35138		0.616955	-0.353114	-0.559400	-0.426320	18.298107	-82.449018	-85.353713
35139		0.617038	-0.353045	-0.559407	-0.426249	18.267185	-82.445343	-85.309265
35140		0.617131	-0.352939	-0.559430	-0.426171	18.252102	-82.440027	-85.276616
35141		0.617214	-0.352902	-0.559405	-0.426114	18.196943	-82.435858	-85.212498
35142		0.617276	-0.352879	-0.559372	-0.426086	18.151529	-82.431355	-85.162288
35143		0.617363	-0.352845	-0.559320	-0.426056	18.089157	-82.424127	-85.094005
35144		0.617413	-0.352862	-0.559248	-0.426064	18.026562	-82.418489	-85.034058
35145		0.617503	-0.352828	-0.559208	-0.426015	17.961748	-82.412919	-84.961373
35146		0.617588	-0.352815	-0.559155	-0.425973	17.887857	-82.407818	-84.882309
35147		0.617650	-0.352785	-0.559142	-0.425925	17.848586	-82.405092	-84.835612
35148		0.617742	-0.352708	-0.559164	-0.425826	17.815058	-82.402999	-84.785099
35149		0.617831	-0.352676	-0.559147	-0.425745	17.751249	-82.400648	-84.710367
35150		0.617912	-0.352630	-0.559135	-0.425682	17.705748	-82.396955	-84.654378
35151		0.617971	-0.352614	-0.559113	-0.425638	17.659483	-82.394638	-84.602426
35152		0.618018	-0.352605	-0.559092	-0.425605	17.619837	-82.392721	-84.558739
35153		0.618073	-0.352592	-0.559075	-0.425557	17.575152	-82.391240	-84.508259
35154		0.618119	-0.352577	-0.559061	-0.425523	17.541687	-82.389373	-84.470012
35155		0.618140	-0.352570	-0.559064	-0.425494	17.526490	-82.389947	-84.451318
35156		0.618202	-0.352563	-0.559042	-0.425438	17.470562	-82.388654	-84.389354
35157		0.618230	-0.352556	-0.559044	-0.425400	17.449215	-82.389314	-84.363634
35158		0.618255	-0.352549	-0.559026	-0.425393	17.428846	-82.387008	-84.341978
35159		0.618293	-0.352501	-0.559045	-0.425352	17.427092	-82.385653	-84.331607
35160		0.618304	-0.352494	-0.559040	-0.425350	17.421717	-82.384453	-84.325333
35161		0.618318	-0.352501	-0.559024	-0.425344	17.402196	-82.383776	-84.306022
35162		0.618319	-0.352521	-0.558984	-0.425381	17.387028	-82.380637	-84.296410
35163		0.618295	-0.352533	-0.558953	-0.425444	17.399198	-82.377108	-84.316101
35164		0.618252	-0.352558	-0.558921	-0.425528	17.421953	-82.373905	-84.349686
35165		0.618222	-0.352562	-0.558897	-0.425600	17.447014	-82.369970	-84.382273
35166		0.618211	-0.352569	-0.558842	-0.425683	17.451117	-82.362898	-84.395434
35167		0.618253	-0.352514	-0.558817	-0.425700	17.448604	-82.354920	-84.389544
35168		0.618287	-0.352437	-0.558842	-0.425682	17.471263	-82.350711	-84.403159
35169		0.618321	-0.352341	-0.558909	-0.425623	17.508536	-82.350090	-84.425397
35170		0.618382	-0.352193	-0.558998	-0.425540	17.557935	-82.347418	-84.452388
35171		0.618438	-0.352053	-0.559077	-0.425473	17.607027	-82.344015	-84.481433
35172		0.618511	-0.351902	-0.559159	-0.425382	17.645795	-82.340653	-84.496849
35173		0.618525	-0.351836	-0.559212	-0.425347	17.681074	-82.340699	-84.522321
35174		0.618561	-0.351768	-0.559241	-0.425313	17.695257	-82.338152	-84.526706
35175		0.618558	-0.351761	-0.559243	-0.425321	17.703094	-82.337512	-84.534648
35176		0.618534	-0.351841	-0.559185	-0.425364	17.667414	-82.338074	-84.510965
35177		0.618524	-0.351940	-0.559119	-0.425385	17.605166	-82.340098	-84.460252
35178		0.618508	-0.352077	-0.559047	-0.425390	17.521513	-82.345698	-84.390185
35179		0.618483	-0.352235	-0.558971	-0.425394	17.431265	-82.352667	-84.315386
35180		0.618498	-0.352357	-0.558895	-0.425373	17.328554	-82.357049	-84.222252
35181		0.618535	-0.352435	-0.558850	-0.425313	17.235375	-82.361524	-84.130682
35182		0.618605	-0.352447	-0.558878	-0.425164	17.161301	-82.369432	-84.042940
35183		0.618613	-0.352475	-0.558941	-0.425046	17.134398	-82.381429	-84.006744
35184		0.618667	-0.352478	-0.559014	-0.424869	17.082767	-82.393758	-83.937637
35185		0.618690	-0.352532	-0.559035	-0.424764	17.022452	-82.403589	-83.871949
35186		0.618707	-0.352601	-0.559026	-0.424692	16.955825	-82.411063	-83.804723
35187		0.618730	-0.352652	-0.559030	-0.424611	16.896724	-82.418362	-83.742324
35188		0.618738	-0.352707	-0.559043	-0.424538	16.850214	-82.426516	-83.693719
35189		0.618771	-0.352702	-0.559115	-0.424399	16.823120	-82.436957	-83.652210
35190		0.618784	-0.352686	-0.559205	-0.424274	16.824115	-82.447764	-83.638976
35191		0.618820	-0.352652	-0.559282	-0.424147	16.814339	-82.455702	-83.613266
35192		0.618841	-0.352639	-0.559310	-0.424093	16.805306	-82.458626	-83.597491
35193		0.618861	-0.352634	-0.559306	-0.424072	16.788134	-82.458430	-83.577805
35194		0.618876	-0.352634	-0.559300	-0.424059	16.774450	-82.458077	-83.562889
35195		0.618910	-0.352617	-0.559307	-0.424014	16.753490	-82.458463	-83.535817
35196		0.618917	-0.352613	-0.559349	-0.423951	16.749712	-82.464019	-83.525363
35197		0.618933	-0.352560	-0.559424	-0.423872	16.773907	-82.468602	-83.536574
35198		0.618977	-0.352449	-0.559482	-0.423825	16.813442	-82.465370	-83.560784
35199		0.619042	-0.352305	-0.559554	-0.423753	16.855780	-82.461251	-83.582311
35200		0.619085	-0.352189	-0.559639	-0.423675	16.900013	-82.461045	-83.607797
35201		0.619068	-0.352138	-0.559694	-0.423670	16.955214	-82.461986	-83.657435
35202		0.619057	-0.352106	-0.559720	-0.423678	16.989134	-82.461313	-83.689128
35203		0.619030	-0.352073	-0.559730	-0.423731	17.039530	-82.457870	-83.741599
35204		0.618988	-0.352031	-0.559768	-0.423777	17.112283	-82.456544	-83.814800
35205		0.618947	-0.351966	-0.559843	-0.423793	17.201373	-82.457441	-83.899092
35206		0.618940	-0.351882	-0.559897	-0.423802	17.270527	-82.454691	-83.960999
35207		0.618933	-0.351803	-0.559949	-0.423808	17.335019	-82.452419	-84.018517
35208		0.618914	-0.351722	-0.559995	-0.423842	17.412537	-82.448569	-84.091636
35209		0.618891	-0.351629	-0.560065	-0.423861	17.504580	-82.446324	-84.176597
35210		0.618884	-0.351498	-0.560155	-0.423861	17.607479	-82.443025	-84.266895
35211		0.618860	-0.351392	-0.560245	-0.423865	17.709927	-82.441888	-84.359424
35212		0.618837	-0.351257	-0.560372	-0.423842	17.832479	-82.442457	-84.466602
35213		0.618810	-0.351157	-0.560453	-0.423858	17.932717	-82.440653	-84.558772
35214		0.618821	-0.351048	-0.560508	-0.423860	18.002253	-82.435850	-84.618053
35215		0.618803	-0.350957	-0.560594	-0.423847	18.086601	-82.436099	-84.692366
35216		0.618779	-0.350901	-0.560666	-0.423834	18.152856	-82.438220	-84.751834
35217		0.618799	-0.350815	-0.560729	-0.423792	18.195966	-82.437672	-84.782516
35218		0.618793	-0.350782	-0.560746	-0.423807	18.226548	-82.435763	-84.811407
35219		0.618848	-0.350657	-0.560796	-0.423762	18.263314	-82.430413	-84.831945
35220		0.618876	-0.350603	-0.560846	-0.423701	18.276768	-82.432020	-84.834075
35221		0.618930	-0.350533	-0.560894	-0.423616	18.275260	-82.432598	-84.817525
35222		0.618995	-0.350452	-0.560944	-0.423521	18.271421	-82.432764	-84.796521
35223		0.619109	-0.350372	-0.560957	-0.423404	18.218090	-82.430014	-84.724346
35224		0.619214	-0.350309	-0.560940	-0.423325	18.160771	-82.424840	-84.653420
35225		0.619320	-0.350270	-0.560923	-0.423224	18.084631	-82.422538	-84.563778
35226		0.619397	-0.350303	-0.560856	-0.423173	17.983845	-82.420526	-84.461312
35227		0.619490	-0.350352	-0.560783	-0.423094	17.856962	-82.420153	-84.331504
35228		0.619609	-0.350401	-0.560693	-0.422997	17.703768	-82.418724	-84.173736
35229		0.619737	-0.350464	-0.560581	-0.422907	17.531921	-82.416073	-83.999409
35230		0.619813	-0.350588	-0.560456	-0.422858	17.365466	-82.416588	-83.840169
35231		0.619971	-0.350633	-0.560379	-0.422692	17.178206	-82.417664	-83.641155
35232		0.620119	-0.350667	-0.560298	-0.422553	17.007288	-82.416616	-83.460040
35233		0.620311	-0.350636	-0.560254	-0.422355	16.842166	-82.414724	-83.272814
35234		0.620505	-0.350616	-0.560213	-0.422140	16.666395	-82.414605	-83.074242
35235		0.620669	-0.350628	-0.560166	-0.421951	16.496953	-82.415996	-82.887590
35236		0.620817	-0.350647	-0.560117	-0.421785	16.339054	-82.417047	-82.715317
35237		0.620932	-0.350674	-0.560094	-0.421623	16.205843	-82.421395	-82.568806
35238		0.621119	-0.350640	-0.560072	-0.421404	16.047401	-82.421768	-82.385873
35239		0.621248	-0.350631	-0.560086	-0.421203	15.927144	-82.427473	-82.245002
35240		0.621388	-0.350594	-0.560104	-0.421003	15.816423	-82.430900	-82.111115
35241		0.621535	-0.350529	-0.560131	-0.420806	15.720420	-82.432592	-81.989600
35242		0.621690	-0.350445	-0.560168	-0.420596	15.628968	-82.434053	-81.869594
35243		0.621816	-0.350388	-0.560176	-0.420447	15.546765	-82.433327	-81.767443
35244		0.621895	-0.350372	-0.560170	-0.420351	15.481303	-82.433625	-81.691158
35245		0.621980	-0.350333	-0.560163	-0.420267	15.426369	-82.431380	-81.624346
35246		0.622094	-0.350279	-0.560131	-0.420187	15.355279	-82.425085	-81.540539
35247		0.622187	-0.350217	-0.560118	-0.420119	15.310310	-82.419814	-81.483154
35248		0.622288	-0.350153	-0.560108	-0.420035	15.258638	-82.415006	-81.417325
35249		0.622384	-0.350053	-0.560129	-0.419947	15.238058	-82.410247	-81.378871
