// General information: 
//  MT Manager version: 2022.2.0 
//  XDA version: 2022.2.0 build 7381 rev 124627 built on 2023-07-19
// Device information: 
//  DeviceId: 10B41515
//  ProductCode: MTW2-3A7G6
//  Firmware Version: 4.14.0
//  Hardware Version: 3.0.0
// Device settings: 
//  Filter Profile: human(46.1)
//  Option Flags: Orientation Smoother Disabled, Position/Velocity Smoother Disabled, Continuous Zero Rotation Update Disabled, AHS Disabled, ICC Disabled
// Coordinate system: ENU
PacketCounter	SampleTimeFine	Quat_q0	Quat_q1	Quat_q2	Quat_q3	Roll	Pitch	Yaw
34038		0.010495	0.688050	0.030009	-0.724966	-29.503256	86.616047	153.780649
34039		0.010495	0.687795	0.030035	-0.725207	-29.220653	86.579436	154.065337
34040		0.010519	0.687546	0.030088	-0.725441	-28.957763	86.543611	154.334551
34041		0.010506	0.687312	0.030049	-0.725664	-28.646353	86.511690	154.641776
34042		0.010571	0.687095	0.030102	-0.725866	-28.386640	86.481778	154.911024
34043		0.010575	0.686917	0.030044	-0.726037	-28.105441	86.458733	155.187879
34044		0.010585	0.686788	0.030000	-0.726161	-27.892992	86.442269	155.397644
34045		0.010593	0.686684	0.029908	-0.726263	-27.654126	86.430910	155.629647
34046		0.010589	0.686570	0.029831	-0.726374	-27.437718	86.417052	155.839467
34047		0.010606	0.686449	0.029771	-0.726491	-27.213819	86.402448	156.059966
34048		0.010574	0.686356	0.029657	-0.726584	-27.010016	86.391620	156.251869
34049		0.010569	0.686234	0.029599	-0.726701	-26.814959	86.375950	156.441893
34050		0.010571	0.686132	0.029575	-0.726799	-26.674070	86.362176	156.580946
34051		0.010570	0.686019	0.029564	-0.726906	-26.544401	86.346408	156.709670
34052		0.010590	0.685928	0.029590	-0.726990	-26.460189	86.333199	156.797638
34053		0.010614	0.685856	0.029583	-0.727059	-26.349799	86.323925	156.909444
34054		0.010628	0.685767	0.029593	-0.727141	-26.256827	86.311437	157.004356
34055		0.010665	0.685683	0.029593	-0.727221	-26.129526	86.300616	157.134598
34056		0.010689	0.685614	0.029579	-0.727285	-26.018829	86.292048	157.246181
34057		0.010738	0.685532	0.029600	-0.727361	-25.907260	86.281305	157.363489
34058		0.010770	0.685452	0.029617	-0.727436	-25.812318	86.270391	157.462388
34059		0.010803	0.685356	0.029680	-0.727523	-25.758243	86.255798	157.524205
34060		0.010831	0.685267	0.029727	-0.727605	-25.695565	86.242577	157.592990
34061		0.010832	0.685151	0.029798	-0.727711	-25.667146	86.223854	157.627309
34062		0.010793	0.685020	0.029844	-0.727833	-25.635206	86.202246	157.659749
34063		0.010783	0.684841	0.029948	-0.727997	-25.596015	86.173103	157.706696
34064		0.010729	0.684685	0.030059	-0.728140	-25.633980	86.145466	157.673295
34065		0.010698	0.684484	0.030220	-0.728323	-25.662694	86.110735	157.655221
34066		0.010640	0.684284	0.030385	-0.728505	-25.724897	86.075097	157.601675
34067		0.010583	0.684049	0.030606	-0.728717	-25.814640	86.032801	157.525289
34068		0.010556	0.683778	0.030842	-0.728962	-25.857270	85.985922	157.499740
34069		0.010505	0.683512	0.031110	-0.729201	-25.961070	85.937987	157.413523
34070		0.010483	0.683198	0.031388	-0.729483	-26.005274	85.883979	157.390145
34071		0.010409	0.682882	0.031610	-0.729770	-26.034241	85.829448	157.373188
34072		0.010340	0.682596	0.031822	-0.730030	-26.073588	85.779781	157.345552
34073		0.010243	0.682311	0.031921	-0.730293	-26.023374	85.732748	157.395954
34074		0.010116	0.682025	0.031951	-0.730560	-25.927247	85.686623	157.484283
34075		0.009997	0.681749	0.031932	-0.730820	-25.785604	85.643610	157.614768
34076		0.009943	0.681515	0.031965	-0.731038	-25.673029	85.607248	157.725665
34077		0.009795	0.681285	0.031907	-0.731257	-25.559666	85.571068	157.822361
34078		0.009628	0.681047	0.031831	-0.731484	-25.441789	85.533589	157.920601
34079		0.009492	0.680754	0.031743	-0.731762	-25.240120	85.489576	158.104108
34080		0.009371	0.680483	0.031716	-0.732017	-25.108394	85.447485	158.223944
34081		0.009201	0.680190	0.031620	-0.732295	-24.935910	85.402553	158.374886
34082		0.008978	0.679893	0.031411	-0.732583	-24.699965	85.358511	158.575841
34083		0.008816	0.679591	0.031267	-0.732871	-24.475181	85.313832	158.775792
34084		0.008601	0.679316	0.031076	-0.733138	-24.272874	85.272612	158.945275
34085		0.008426	0.679036	0.030928	-0.733404	-24.080084	85.230859	159.111925
34086		0.008261	0.678801	0.030808	-0.733629	-23.938521	85.194914	159.230362
34087		0.008073	0.678596	0.030694	-0.733826	-23.845448	85.162539	159.299017
34088		0.007896	0.678406	0.030650	-0.734005	-23.819612	85.130729	159.306925
34089		0.007733	0.678188	0.030614	-0.734210	-23.771522	85.095084	159.338840
34090		0.007544	0.677983	0.030559	-0.734403	-23.736731	85.061091	159.353979
34091		0.007405	0.677777	0.030557	-0.734595	-23.709483	85.026990	159.369830
34092		0.007266	0.677558	0.030582	-0.734797	-23.698860	84.990401	159.371176
34093		0.007163	0.677279	0.030639	-0.735053	-23.647389	84.945284	159.419040
34094		0.007064	0.677018	0.030739	-0.735290	-23.643871	84.901847	159.422656
34095		0.006989	0.676761	0.030805	-0.735525	-23.595046	84.860539	159.470841
34096		0.006924	0.676540	0.030884	-0.735726	-23.572507	84.824447	159.494519
34097		0.006883	0.676338	0.030935	-0.735909	-23.520616	84.792679	159.547320
34098		0.006847	0.676187	0.030905	-0.736050	-23.425499	84.770549	159.637046
34099		0.006828	0.676033	0.030857	-0.736194	-23.300576	84.748988	159.756538
34100		0.006784	0.675904	0.030763	-0.736316	-23.172011	84.731488	159.873867
34101		0.006733	0.675813	0.030646	-0.736405	-23.053301	84.719892	159.979062
34102		0.006670	0.675757	0.030554	-0.736461	-22.987878	84.712367	160.031891
34103		0.006552	0.675738	0.030415	-0.736485	-22.945331	84.709718	160.053613
34104		0.006392	0.675767	0.030287	-0.736465	-22.975627	84.712407	159.999894
34105		0.006241	0.675799	0.030177	-0.736441	-23.016310	84.715464	159.938028
34106		0.006094	0.675838	0.030106	-0.736410	-23.092320	84.718463	159.844359
34107		0.005986	0.675869	0.030041	-0.736385	-23.139309	84.721446	159.783373
34108		0.005866	0.675933	0.029964	-0.736330	-23.205507	84.729048	159.701141
34109		0.005800	0.675990	0.029892	-0.736281	-23.229491	84.737265	159.665951
34110		0.005754	0.676048	0.029856	-0.736230	-23.269442	84.745166	159.619341
34111		0.005704	0.675958	0.029801	-0.736316	-23.204316	84.732039	159.675929
34112		0.005642	0.675897	0.029731	-0.736375	-23.152272	84.723258	159.717295
34113		0.005566	0.675917	0.029638	-0.736361	-23.143187	84.726316	159.712616
34114		0.005476	0.675935	0.029564	-0.736347	-23.160206	84.728238	159.682302
34115		0.005378	0.675921	0.029463	-0.736365	-23.139291	84.725938	159.687127
34116		0.005241	0.675958	0.029346	-0.736337	-23.165640	84.730209	159.640172
34117		0.005120	0.675955	0.029240	-0.736344	-23.165361	84.729060	159.622022
34118		0.004985	0.675916	0.029139	-0.736385	-23.158044	84.721985	159.610151
34119		0.004864	0.675830	0.029048	-0.736469	-23.118090	84.708327	159.632920
34120		0.004742	0.675741	0.028957	-0.736555	-23.078014	84.694112	159.655793
34121		0.004665	0.675606	0.028887	-0.736682	-22.993193	84.674158	159.728633
34122		0.004587	0.675468	0.028826	-0.736811	-22.916739	84.653577	159.793882
34123		0.004511	0.675304	0.028758	-0.736965	-22.816024	84.629333	159.882971
34124		0.004344	0.675153	0.028614	-0.737109	-22.728546	84.606365	159.945230
34125		0.004220	0.674990	0.028496	-0.737264	-22.624198	84.582199	160.029878
34126		0.004068	0.674867	0.028377	-0.737382	-22.564874	84.563008	160.067298
34127		0.003871	0.674723	0.028204	-0.737522	-22.481175	84.540846	160.121011
34128		0.003638	0.674600	0.028025	-0.737642	-22.432638	84.520831	160.136040
34129		0.003391	0.674443	0.027847	-0.737794	-22.375847	84.495497	160.158462
34130		0.003152	0.674258	0.027681	-0.737970	-22.307893	84.465963	160.193568
34131		0.002897	0.674021	0.027493	-0.738194	-22.202941	84.429118	160.262635
34132		0.002599	0.673793	0.027270	-0.738412	-22.107882	84.393188	160.315454
34133		0.002328	0.673551	0.027076	-0.738641	-22.009821	84.355180	160.375809
34134		0.002048	0.673302	0.026841	-0.738877	-21.882848	84.317141	160.461046
34135		0.001761	0.673000	0.026615	-0.739161	-21.740692	84.270895	160.561566
34136		0.001438	0.672657	0.026399	-0.739482	-21.611764	84.217458	160.646894
34137		0.001087	0.672216	0.026190	-0.739891	-21.457568	84.148727	160.755643
34138		0.000710	0.671645	0.025992	-0.740416	-21.268141	84.060286	160.898575
34139		0.000240	0.670960	0.025741	-0.741046	-21.048013	83.953988	161.060296
34140		-0.000316	0.670205	0.025453	-0.741739	-20.830936	83.836124	161.208968
34141		-0.000943	0.669325	0.025134	-0.742544	-20.585370	83.699011	161.377851
34142		-0.001734	0.668379	0.024721	-0.743408	-20.355476	83.550272	161.510111
34143		-0.002544	0.667359	0.024341	-0.744334	-20.137083	83.389644	161.632078
34144		-0.003494	0.666271	0.023851	-0.745320	-19.907658	83.218388	161.744791
34145		-0.004406	0.665143	0.023395	-0.746336	-19.672781	83.041775	161.868765
34146		-0.005379	0.664016	0.022881	-0.747349	-19.443434	82.865370	161.977440
34147		-0.006280	0.662847	0.022435	-0.748393	-19.211175	82.683270	162.100593
34148		-0.007186	0.661709	0.021969	-0.749404	-18.990035	82.506455	162.210375
34149		-0.008018	0.660607	0.021532	-0.750380	-18.768390	82.336149	162.329044
34150		-0.008821	0.659618	0.021092	-0.751254	-18.576358	82.183237	162.420268
34151		-0.009550	0.658679	0.020669	-0.752079	-18.380335	82.039280	162.522881
34152		-0.010253	0.657765	0.020232	-0.752882	-18.175703	81.899882	162.634870
34153		-0.010896	0.656885	0.019818	-0.753652	-17.972115	81.766542	162.752714
34154		-0.011565	0.656088	0.019340	-0.754347	-17.775804	81.646285	162.855915
34155		-0.012148	0.655274	0.018896	-0.755058	-17.555587	81.524688	162.992679
34156		-0.012743	0.654452	0.018476	-0.755771	-17.358185	81.401308	163.107672
34157		-0.013327	0.653706	0.018063	-0.756415	-17.186394	81.289278	163.198443
34158		-0.013914	0.653000	0.017658	-0.757024	-17.035628	81.182748	163.268701
34159		-0.014443	0.652323	0.017342	-0.757605	-16.916909	81.079793	163.318776
34160		-0.014946	0.651754	0.017038	-0.758092	-16.825185	80.993010	163.344794
34161		-0.015410	0.651211	0.016715	-0.758556	-16.713649	80.911325	163.392405
34162		-0.015852	0.650569	0.016383	-0.759105	-16.562770	80.815970	163.480354
34163		-0.016217	0.649965	0.016083	-0.759621	-16.407436	80.727234	163.581704
34164		-0.016648	0.649606	0.015738	-0.759926	-16.323015	80.673434	163.603022
34165		-0.017046	0.648951	0.015477	-0.760482	-16.193191	80.575758	163.679284
34166		-0.017479	0.648208	0.015194	-0.761111	-16.047022	80.465289	163.767151
34167		-0.017903	0.647655	0.014954	-0.761576	-15.968287	80.381589	163.791910
34168		-0.018359	0.647131	0.014719	-0.762016	-15.914346	80.301333	163.789635
34169		-0.018817	0.647042	0.014434	-0.762085	-15.942752	80.285008	163.700829
34170		-0.019277	0.646996	0.014167	-0.762118	-15.991660	80.274550	163.592797
34171		-0.019719	0.646724	0.013863	-0.762343	-15.957835	80.232531	163.565983
34172		-0.020196	0.646473	0.013459	-0.762551	-15.894929	80.195022	163.557214
34173		-0.020581	0.646243	0.013062	-0.762743	-15.801883	80.162372	163.586592
34174		-0.021013	0.645884	0.012625	-0.763042	-15.678560	80.111056	163.639221
34175		-0.021394	0.645445	0.012241	-0.763409	-15.542390	80.048144	163.713125
34176		-0.021806	0.645122	0.011757	-0.763678	-15.397754	80.003392	163.784888
34177		-0.022147	0.644875	0.011289	-0.763884	-15.251198	79.970678	163.865637
34178		-0.022515	0.644614	0.010765	-0.764100	-15.085733	79.936779	163.958507
34179		-0.022825	0.644341	0.010315	-0.764328	-14.931142	79.900497	164.051172
34180		-0.023134	0.644145	0.009857	-0.764490	-14.789925	79.875748	164.130040
34181		-0.023392	0.644037	0.009448	-0.764578	-14.672083	79.863512	164.193594
34182		-0.023702	0.643942	0.008972	-0.764655	-14.546597	79.853601	164.255103
34183		-0.023949	0.643822	0.008559	-0.764752	-14.420307	79.840031	164.327660
34184		-0.024270	0.643737	0.008038	-0.764820	-14.279732	79.832250	164.399862
34185		-0.024527	0.643647	0.007585	-0.764892	-14.145231	79.823638	164.476469
34186		-0.024839	0.643503	0.007109	-0.765007	-14.010631	79.806655	164.546958
34187		-0.025129	0.643487	0.006640	-0.765016	-13.897864	79.808348	164.597973
34188		-0.025566	0.643511	0.006029	-0.764986	-13.784365	79.816157	164.626257
34189		-0.025912	0.643519	0.005572	-0.764971	-13.705319	79.820209	164.640015
34190		-0.026355	0.643613	0.004975	-0.764881	-13.615992	79.837951	164.644680
34191		-0.026716	0.643743	0.004470	-0.764762	-13.545460	79.860410	164.644842
34192		-0.027124	0.643895	0.003944	-0.764623	-13.488581	79.885715	164.625773
34193		-0.027511	0.644128	0.003388	-0.764416	-13.425087	79.923839	164.612612
34194		-0.027927	0.644506	0.002747	-0.764084	-13.363197	79.984283	164.588571
34195		-0.028291	0.644975	0.002116	-0.763677	-13.303856	80.058800	164.567067
34196		-0.028701	0.645530	0.001439	-0.763194	-13.258871	80.145913	164.523810
34197		-0.029073	0.646116	0.000714	-0.762685	-13.181015	80.239248	164.512536
34198		-0.029486	0.646716	-0.000139	-0.762160	-13.058487	80.336785	164.532374
34199		-0.029914	0.647314	-0.001087	-0.761635	-12.892098	80.435701	164.586953
34200		-0.030445	0.647902	-0.002226	-0.761112	-12.668241	80.535301	164.675139
34201		-0.031032	0.648383	-0.003468	-0.760674	-12.389107	80.620672	164.805737
34202		-0.031831	0.648803	-0.004957	-0.760274	-12.058989	80.698734	164.949934
34203		-0.032606	0.649117	-0.006420	-0.759962	-11.705328	80.761136	165.121687
34204		-0.033541	0.649267	-0.007918	-0.759779	-11.368730	80.797982	165.260588
34205		-0.034524	0.649281	-0.009382	-0.759707	-11.041288	80.813495	165.389032
34206		-0.035612	0.649200	-0.010838	-0.759706	-10.747889	80.813807	165.475600
34207		-0.036682	0.648985	-0.012135	-0.759820	-10.503240	80.791721	165.527588
34208		-0.037831	0.648702	-0.013417	-0.759983	-10.290418	80.758661	165.542599
34209		-0.038877	0.648464	-0.014579	-0.760112	-10.104284	80.731417	165.549015
34210		-0.039929	0.648268	-0.015710	-0.760202	-9.946875	80.710157	165.528707
34211		-0.040872	0.648034	-0.016715	-0.760330	-9.799002	80.682342	165.518060
34212		-0.041757	0.647802	-0.017620	-0.760460	-9.678277	80.653993	165.493006
34213		-0.042525	0.647618	-0.018418	-0.760555	-9.571472	80.632337	165.472342
34214		-0.043232	0.647548	-0.019154	-0.760557	-9.491222	80.627064	165.435134
34215		-0.043849	0.647487	-0.019782	-0.760557	-9.428532	80.622414	165.396430
34216		-0.044382	0.647361	-0.020282	-0.760620	-9.382988	80.606794	165.357846
34217		-0.044870	0.647168	-0.020734	-0.760743	-9.329705	80.581030	165.334549
34218		-0.045263	0.646911	-0.021081	-0.760929	-9.276275	80.545067	165.327669
34219		-0.045597	0.646621	-0.021376	-0.761147	-9.217748	80.504014	165.334808
34220		-0.045849	0.646347	-0.021637	-0.761358	-9.143588	80.465575	165.366988
34221		-0.045995	0.646154	-0.021803	-0.761508	-9.087312	80.438635	165.397810
34222		-0.046146	0.646045	-0.021953	-0.761587	-9.056351	80.423658	165.404255
34223		-0.046136	0.646040	-0.021999	-0.761591	-9.027410	80.423853	165.430240
34224		-0.046112	0.646051	-0.022033	-0.761582	-9.001740	80.426393	165.455108
34225		-0.045965	0.646064	-0.021933	-0.761582	-8.990863	80.428235	165.486092
34226		-0.045841	0.646143	-0.021870	-0.761525	-8.982836	80.440081	165.509375
34227		-0.045599	0.646377	-0.021740	-0.761345	-8.985379	80.474865	165.537212
34228		-0.045410	0.646571	-0.021655	-0.761193	-8.980929	80.504064	165.564058
34229		-0.045179	0.646602	-0.021432	-0.761187	-8.999660	80.507272	165.582357
34230		-0.044993	0.646471	-0.021250	-0.761314	-8.986607	80.486687	165.625282
34231		-0.044760	0.646413	-0.020991	-0.761385	-9.006693	80.476046	165.645184
34232		-0.044596	0.646421	-0.020823	-0.761392	-9.022020	80.476023	165.656929
34233		-0.044399	0.646474	-0.020601	-0.761364	-9.059328	80.482069	165.653702
34234		-0.044266	0.646514	-0.020427	-0.761343	-9.097312	80.486283	165.640772
34235		-0.044133	0.646543	-0.020233	-0.761331	-9.143758	80.488481	165.620932
34236		-0.044006	0.646562	-0.020027	-0.761327	-9.197530	80.489041	165.594288
34237		-0.043901	0.646584	-0.019838	-0.761320	-9.252692	80.489900	165.563045
34238		-0.043875	0.646587	-0.019745	-0.761321	-9.289752	80.488976	165.535657
34239		-0.043808	0.646564	-0.019559	-0.761350	-9.351739	80.482879	165.494226
34240		-0.043776	0.646553	-0.019443	-0.761364	-9.395256	80.479394	165.462761
34241		-0.043670	0.646549	-0.019250	-0.761378	-9.447228	80.476544	165.435115
34242		-0.043547	0.646543	-0.019011	-0.761396	-9.514647	80.472676	165.397062
34243		-0.043395	0.646569	-0.018793	-0.761388	-9.565037	80.474258	165.376868
34244		-0.043215	0.646622	-0.018514	-0.761361	-9.639095	80.478892	165.340162
34245		-0.043060	0.646626	-0.018268	-0.761372	-9.697614	80.476791	165.314285
34246		-0.042934	0.646560	-0.018013	-0.761441	-9.760798	80.463902	165.282024
34247		-0.042780	0.646606	-0.017767	-0.761416	-9.828422	80.467928	165.247000
34248		-0.042572	0.646754	-0.017478	-0.761309	-9.913541	80.486811	165.202411
34249		-0.042374	0.646902	-0.017208	-0.761200	-9.994571	80.505900	165.159511
34250		-0.042166	0.647066	-0.016938	-0.761078	-10.073737	80.527537	165.119364
34251		-0.041943	0.647265	-0.016672	-0.760928	-10.151408	80.554490	165.081514
34252		-0.041725	0.647451	-0.016398	-0.760787	-10.232988	80.579418	165.040070
34253		-0.041508	0.647597	-0.016152	-0.760680	-10.293279	80.599048	165.017539
34254		-0.041332	0.647715	-0.015928	-0.760594	-10.355147	80.614304	164.988247
34255		-0.041165	0.647755	-0.015723	-0.760573	-10.395425	80.618503	164.978234
34256		-0.041046	0.647743	-0.015538	-0.760594	-10.435896	80.614649	164.962492
34257		-0.040966	0.647653	-0.015350	-0.760679	-10.479678	80.598911	164.940545
34258		-0.040953	0.647491	-0.015221	-0.760820	-10.508589	80.572726	164.923081
34259		-0.040871	0.647342	-0.015038	-0.760955	-10.536400	80.548407	164.916750
34260		-0.040812	0.647208	-0.014847	-0.761075	-10.582437	80.525919	164.890993
34261		-0.040726	0.647097	-0.014671	-0.761178	-10.612699	80.507260	164.881986
34262		-0.040653	0.647042	-0.014528	-0.761231	-10.643035	80.497491	164.869160
34263		-0.040538	0.647066	-0.014400	-0.761219	-10.663088	80.500107	164.868910
34264		-0.040374	0.647130	-0.014225	-0.761177	-10.693336	80.508295	164.866252
34265		-0.040255	0.647256	-0.014135	-0.761077	-10.713061	80.526739	164.863575
34266		-0.040144	0.647439	-0.014053	-0.760929	-10.743387	80.553463	164.849132
34267		-0.040001	0.647582	-0.013938	-0.760818	-10.768362	80.574121	164.845140
34268		-0.039896	0.647671	-0.013825	-0.760749	-10.798531	80.586524	164.832736
34269		-0.039741	0.647731	-0.013675	-0.760709	-10.819912	80.594453	164.836258
34270		-0.039626	0.647807	-0.013562	-0.760652	-10.843241	80.605123	164.831460
34271		-0.039421	0.647905	-0.013400	-0.760583	-10.855941	80.619084	164.848646
34272		-0.039265	0.648028	-0.013286	-0.760487	-10.870558	80.637246	164.856073
34273		-0.039058	0.648205	-0.013130	-0.760350	-10.895902	80.662983	164.860339
34274		-0.038838	0.648328	-0.012947	-0.760259	-10.918487	80.680657	164.870621
34275		-0.038617	0.648408	-0.012747	-0.760206	-10.940662	80.691622	164.882664
34276		-0.038405	0.648478	-0.012521	-0.760161	-10.978367	80.700463	164.880694
34277		-0.038183	0.648463	-0.012287	-0.760189	-10.997821	80.696770	164.898294
34278		-0.037974	0.648390	-0.012022	-0.760266	-11.027417	80.683897	164.907232
34279		-0.037784	0.648307	-0.011793	-0.760350	-11.044367	80.669925	164.924367
34280		-0.037621	0.648249	-0.011574	-0.760410	-11.074088	80.659519	164.925608
34281		-0.037467	0.648201	-0.011353	-0.760463	-11.109843	80.650357	164.920326
34282		-0.037268	0.648132	-0.011087	-0.760535	-11.145842	80.637959	164.922184
34283		-0.037054	0.648076	-0.010830	-0.760597	-11.172109	80.627822	164.934191
34284		-0.036837	0.648047	-0.010576	-0.760636	-11.201837	80.621762	164.942714
34285		-0.036566	0.648020	-0.010294	-0.760675	-11.221820	80.616367	164.967690
34286		-0.036299	0.647956	-0.010016	-0.760746	-11.234120	80.605413	164.999732
34287		-0.035963	0.647875	-0.009668	-0.760836	-11.248941	80.591672	165.040525
34288		-0.035599	0.647853	-0.009357	-0.760875	-11.244063	80.587781	165.100257
34289		-0.035132	0.647863	-0.008996	-0.760893	-11.225621	80.589041	165.186079
34290		-0.034568	0.647838	-0.008535	-0.760945	-11.209406	80.584912	165.285620
34291		-0.034002	0.647753	-0.008110	-0.761048	-11.160747	80.572573	165.414849
34292		-0.033411	0.647657	-0.007677	-0.761160	-11.104243	80.558921	165.554657
34293		-0.032766	0.647563	-0.007129	-0.761274	-11.083190	80.544150	165.672664
34294		-0.032118	0.647517	-0.006573	-0.761345	-11.075343	80.536573	165.778501
34295		-0.031425	0.647669	-0.006005	-0.761250	-11.092996	80.558362	165.863420
34296		-0.030733	0.647760	-0.005397	-0.761205	-11.120829	80.570566	165.941341
34297		-0.030059	0.647769	-0.004784	-0.761229	-11.141987	80.570535	166.024872
34298		-0.029446	0.647890	-0.004165	-0.761153	-11.215787	80.586007	166.051321
34299		-0.028851	0.648031	-0.003507	-0.761060	-11.322251	80.603510	166.046762
34300		-0.028325	0.648144	-0.002861	-0.760985	-11.448585	80.616228	166.015808
34301		-0.027834	0.648258	-0.002195	-0.760909	-11.601399	80.628225	165.957059
34302		-0.027378	0.648361	-0.001576	-0.760839	-11.742541	80.638912	165.903375
34303		-0.026925	0.648451	-0.000968	-0.760780	-11.877645	80.647952	165.854474
34304		-0.026481	0.648567	-0.000376	-0.760696	-12.014374	80.661042	165.802060
34305		-0.026084	0.648703	0.000151	-0.760594	-12.141063	80.677473	165.750541
34306		-0.025742	0.648823	0.000647	-0.760503	-12.274150	80.691294	165.685592
34307		-0.025416	0.648917	0.001102	-0.760433	-12.387654	80.701881	165.635606
34308		-0.025194	0.649023	0.001486	-0.760350	-12.513236	80.713719	165.559283
34309		-0.024981	0.649051	0.001900	-0.760332	-12.641928	80.713539	165.481585
34310		-0.024812	0.649084	0.002295	-0.760308	-12.781644	80.713711	165.387710
34311		-0.024673	0.649240	0.002636	-0.760178	-12.933103	80.732430	165.275360
34312		-0.024520	0.649362	0.003030	-0.760078	-13.099564	80.745192	165.153369
34313		-0.024386	0.649403	0.003372	-0.760046	-13.229645	80.746847	165.061966
34314		-0.024253	0.649481	0.003755	-0.759982	-13.390042	80.753128	164.943563
34315		-0.024131	0.649500	0.004154	-0.759967	-13.549563	80.750219	164.826378
34316		-0.024018	0.649425	0.004554	-0.760032	-13.692672	80.733407	164.724918
34317		-0.023862	0.649296	0.005018	-0.760144	-13.836680	80.708160	164.631359
34318		-0.023727	0.649159	0.005501	-0.760263	-13.998091	80.680805	164.520187
34319		-0.023545	0.648987	0.006046	-0.760411	-14.161195	80.648187	164.416102
34320		-0.023366	0.648618	0.006663	-0.760726	-14.315727	80.585203	164.326269
34321		-0.023134	0.648280	0.007311	-0.761015	-14.469417	80.527211	164.244026
34322		-0.022876	0.648065	0.007983	-0.761200	-14.651599	80.487015	164.137434
34323		-0.022581	0.647774	0.008688	-0.761448	-14.815388	80.435947	164.054995
34324		-0.022210	0.647445	0.009456	-0.761730	-14.968084	80.379426	163.994827
34325		-0.021829	0.647065	0.010206	-0.762054	-15.094726	80.316292	163.960102
34326		-0.021388	0.646679	0.010988	-0.762383	-15.209995	80.252791	163.944237
34327		-0.020849	0.646618	0.011719	-0.762439	-15.334423	80.239426	163.923062
34328		-0.020266	0.646588	0.012463	-0.762468	-15.454345	80.231264	163.911118
34329		-0.019628	0.646410	0.013191	-0.762623	-15.507981	80.203228	163.968486
34330		-0.018995	0.646251	0.013881	-0.762762	-15.549188	80.178675	164.034902
34331		-0.018372	0.646082	0.014579	-0.762907	-15.596871	80.152429	164.094678
34332		-0.017717	0.645847	0.015350	-0.763107	-15.652403	80.115845	164.155075
34333		-0.017126	0.645571	0.016022	-0.763340	-15.675285	80.074194	164.234863
34334		-0.016506	0.645308	0.016739	-0.763561	-15.712143	80.034137	164.306757
34335		-0.015941	0.645135	0.017359	-0.763705	-15.744878	80.008119	164.370442
34336		-0.015401	0.645044	0.017950	-0.763779	-15.793133	79.994002	164.414221
34337		-0.014866	0.644906	0.018494	-0.763893	-15.809600	79.974112	164.485517
34338		-0.014330	0.644762	0.019030	-0.764012	-15.819858	79.953483	164.562457
34339		-0.013831	0.644631	0.019485	-0.764120	-15.809657	79.935784	164.650264
34340		-0.013404	0.644502	0.019929	-0.764225	-15.823380	79.917022	164.707325
34341		-0.013023	0.644377	0.020319	-0.764327	-15.830664	79.899093	164.762817
34342		-0.012674	0.644282	0.020626	-0.764405	-15.817778	79.886383	164.829073
34343		-0.012357	0.644158	0.020923	-0.764506	-15.805937	79.869231	164.890876
34344		-0.012064	0.643968	0.021229	-0.764663	-15.793813	79.841720	164.951729
34345		-0.011850	0.643673	0.021470	-0.764907	-15.759334	79.798843	165.023241
34346		-0.011641	0.643412	0.021748	-0.765123	-15.751590	79.759946	165.070676
34347		-0.011532	0.643132	0.021948	-0.765354	-15.742591	79.717898	165.104847
34348		-0.011454	0.642848	0.022127	-0.765588	-15.735105	79.675066	165.133249
34349		-0.011369	0.642598	0.022254	-0.765796	-15.707923	79.638292	165.177726
34350		-0.011333	0.642421	0.022408	-0.765940	-15.729079	79.610486	165.171996
34351		-0.011332	0.642218	0.022490	-0.766108	-15.723401	79.579683	165.184460
34352		-0.011403	0.642072	0.022500	-0.766230	-15.724534	79.556903	165.178404
34353		-0.011446	0.642018	0.022517	-0.766273	-15.737779	79.548030	165.163032
34354		-0.011510	0.641989	0.022506	-0.766297	-15.751086	79.542676	165.143643
34355		-0.011558	0.641884	0.022503	-0.766384	-15.746067	79.526652	165.144510
34356		-0.011547	0.641757	0.022557	-0.766489	-15.739889	79.507498	165.155998
34357		-0.011555	0.641611	0.022556	-0.766611	-15.711044	79.486359	165.184102
34358		-0.011566	0.641464	0.022570	-0.766734	-15.690729	79.464581	165.204677
34359		-0.011543	0.641273	0.022592	-0.766894	-15.651208	79.437081	165.247904
34360		-0.011547	0.641097	0.022613	-0.767040	-15.625565	79.411235	165.274885
34361		-0.011533	0.640936	0.022666	-0.767173	-15.611231	79.387307	165.294727
34362		-0.011498	0.640766	0.022752	-0.767313	-15.602280	79.361951	165.313601
34363		-0.011509	0.640615	0.022777	-0.767438	-15.586675	79.339507	165.330388
34364		-0.011519	0.640463	0.022812	-0.767563	-15.574980	79.316727	165.344038
34365		-0.011592	0.640306	0.022824	-0.767693	-15.575825	79.292327	165.338297
34366		-0.011647	0.640170	0.022855	-0.767805	-15.582922	79.271034	165.329239
34367		-0.011755	0.640035	0.022867	-0.767915	-15.600850	79.249295	165.303511
34368		-0.011796	0.639946	0.022923	-0.767988	-15.624028	79.234460	165.281530
34369		-0.011862	0.639864	0.022923	-0.768055	-15.631845	79.221364	165.268381
34370		-0.011869	0.639833	0.022968	-0.768079	-15.649194	79.215933	165.254162
34371		-0.011848	0.639822	0.022969	-0.768088	-15.639416	79.214771	165.265705
34372		-0.011811	0.639871	0.023002	-0.768047	-15.650584	79.222003	165.260306
34373		-0.011756	0.639907	0.023024	-0.768017	-15.647494	79.227803	165.269602
34374		-0.011682	0.639942	0.023070	-0.767988	-15.647911	79.233439	165.278999
34375		-0.011654	0.639986	0.023103	-0.767950	-15.661877	79.239786	165.269893
34376		-0.011616	0.640048	0.023200	-0.767897	-15.705005	79.247591	165.237788
34377		-0.011712	0.640124	0.023231	-0.767831	-15.771503	79.255968	165.165951
34378		-0.011835	0.640195	0.023358	-0.767766	-15.891278	79.261226	165.046496
34379		-0.012093	0.640299	0.023456	-0.767672	-16.056819	79.269048	164.867963
34380		-0.012434	0.640451	0.023551	-0.767537	-16.262076	79.281863	164.642646
34381		-0.012797	0.640638	0.023700	-0.767370	-16.509239	79.298220	164.378062
34382		-0.013183	0.640855	0.023895	-0.767177	-16.793809	79.317081	164.077955
34383		-0.013562	0.641097	0.024077	-0.766963	-17.076485	79.339653	163.779283
34384		-0.013995	0.641322	0.024209	-0.766762	-17.353929	79.359589	163.477269
34385		-0.014348	0.641474	0.024385	-0.766623	-17.605802	79.369564	163.210998
34386		-0.014658	0.641630	0.024553	-0.766481	-17.838262	79.381181	162.966938
34387		-0.014915	0.641753	0.024679	-0.766369	-18.023998	79.390030	162.770561
34388		-0.015119	0.641777	0.024784	-0.766342	-18.155639	79.386336	162.630871
34389		-0.015284	0.641803	0.024835	-0.766315	-18.248180	79.384990	162.529037
34390		-0.015382	0.641891	0.024864	-0.766238	-18.320642	79.394645	162.451014
34391		-0.015445	0.641928	0.024820	-0.766208	-18.332705	79.399330	162.430220
34392		-0.015477	0.641967	0.024767	-0.766176	-18.330556	79.405406	162.425422
34393		-0.015463	0.641981	0.024698	-0.766166	-18.296661	79.409299	162.454817
34394		-0.015482	0.641951	0.024557	-0.766196	-18.231373	79.407687	162.507146
34395		-0.015430	0.642025	0.024435	-0.766139	-18.173338	79.422233	162.559408
34396		-0.015366	0.642173	0.024307	-0.766020	-18.126100	79.447616	162.601420
34397		-0.015315	0.642191	0.024157	-0.766010	-18.041523	79.454780	162.678013
34398		-0.015265	0.642199	0.024001	-0.766010	-17.951655	79.460507	162.759205
34399		-0.015253	0.642228	0.023852	-0.765991	-17.884829	79.468143	162.814936
34400		-0.015202	0.642203	0.023796	-0.766014	-17.833329	79.467035	162.866003
34401		-0.015206	0.642161	0.023696	-0.766052	-17.777689	79.463181	162.913225
34402		-0.015211	0.642144	0.023639	-0.766068	-17.749192	79.461863	162.936658
34403		-0.015198	0.642099	0.023593	-0.766108	-17.711654	79.456766	162.971405
34404		-0.015156	0.642084	0.023592	-0.766121	-17.691324	79.455570	162.995141
34405		-0.015140	0.642100	0.023545	-0.766110	-17.667409	79.459235	163.016561
34406		-0.015142	0.642107	0.023492	-0.766105	-17.644972	79.461364	163.034487
34407		-0.015157	0.642100	0.023464	-0.766112	-17.635961	79.460610	163.040002
34408		-0.015129	0.642120	0.023522	-0.766094	-17.657120	79.462800	163.025889
34409		-0.015160	0.642105	0.023499	-0.766107	-17.654646	79.460472	163.023973
34410		-0.015241	0.642082	0.023425	-0.766127	-17.645491	79.456981	163.020493
34411		-0.015270	0.642036	0.023404	-0.766165	-17.636138	79.450242	163.025745
34412		-0.015250	0.641997	0.023454	-0.766197	-17.642200	79.443975	163.025426
34413		-0.015251	0.641946	0.023435	-0.766240	-17.621612	79.437130	163.044331
34414		-0.015280	0.641894	0.023385	-0.766284	-17.597247	79.430159	163.062306
34415		-0.015278	0.641763	0.023376	-0.766395	-17.560582	79.411647	163.098422
34416		-0.015288	0.641623	0.023366	-0.766511	-17.526271	79.391745	163.131116
34417		-0.015305	0.641435	0.023364	-0.766669	-17.487329	79.364451	163.168562
34418		-0.015323	0.641260	0.023370	-0.766815	-17.455549	79.338951	163.199360
34419		-0.015350	0.641068	0.023380	-0.766974	-17.425395	79.310808	163.228123
34420		-0.015369	0.640890	0.023333	-0.767124	-17.368875	79.285851	163.279331
34421		-0.015393	0.640737	0.023265	-0.767253	-17.311150	79.265005	163.329532
34422		-0.015456	0.640566	0.023159	-0.767398	-17.246369	79.241406	163.380539
34423		-0.015506	0.640492	0.023020	-0.767463	-17.184823	79.232702	163.426787
34424		-0.015566	0.640418	0.022874	-0.767528	-17.123547	79.223893	163.471259
34425		-0.015648	0.640211	0.022690	-0.767705	-17.022971	79.196371	163.550157
34426		-0.015774	0.640072	0.022458	-0.767824	-16.932463	79.178781	163.611559
34427		-0.015892	0.640009	0.022245	-0.767881	-16.865382	79.171583	163.651768
34428		-0.016041	0.639940	0.022027	-0.767941	-16.806635	79.163166	163.680573
34429		-0.016143	0.639810	0.021850	-0.768053	-16.734638	79.146038	163.729908
34430		-0.016205	0.639669	0.021734	-0.768172	-16.673446	79.126978	163.776562
34431		-0.016249	0.639647	0.021615	-0.768193	-16.631244	79.125267	163.805503
34432		-0.016235	0.639642	0.021592	-0.768198	-16.614365	79.125431	163.821682
34433		-0.016233	0.639579	0.021541	-0.768252	-16.576687	79.117484	163.855372
34434		-0.016223	0.639494	0.021528	-0.768323	-16.548083	79.105826	163.883670
34435		-0.016235	0.639386	0.021554	-0.768413	-16.540803	79.089472	163.892132
34436		-0.016169	0.639269	0.021646	-0.768509	-16.532038	79.072249	163.913840
34437		-0.016166	0.639187	0.021663	-0.768576	-16.520566	79.060297	163.926862
34438		-0.016214	0.639137	0.021690	-0.768616	-16.540026	79.051585	163.905761
34439		-0.016209	0.639052	0.021728	-0.768686	-16.536506	79.038703	163.912698
34440		-0.016161	0.638978	0.021821	-0.768746	-16.544859	79.027155	163.915895
34441		-0.016125	0.638914	0.021851	-0.768799	-16.530636	79.018177	163.935482
34442		-0.015997	0.638859	0.021980	-0.768843	-16.530208	79.010449	163.956761
34443		-0.015962	0.638797	0.021999	-0.768895	-16.512091	79.001935	163.979321
34444		-0.015964	0.638741	0.021982	-0.768942	-16.493101	78.994189	163.996739
34445		-0.015943	0.638692	0.021961	-0.768984	-16.465532	78.987976	164.024313
34446		-0.015902	0.638667	0.021980	-0.769005	-16.453324	78.985006	164.041459
34447		-0.015911	0.638661	0.021946	-0.769010	-16.440753	78.984641	164.050535
34448		-0.015907	0.638675	0.021928	-0.769000	-16.433551	78.987021	164.056553
34449		-0.015906	0.638681	0.021897	-0.768995	-16.420744	78.988596	164.066955
34450		-0.015845	0.638710	0.021923	-0.768972	-16.416087	78.993533	164.078665
34451		-0.015822	0.638747	0.021899	-0.768942	-16.404819	78.999781	164.089842
34452		-0.015800	0.638763	0.021862	-0.768930	-16.383791	79.003308	164.109606
34453		-0.015771	0.638736	0.021824	-0.768955	-16.350126	79.000750	164.142639
34454		-0.015705	0.638717	0.021851	-0.768971	-16.333867	78.998898	164.166391
34455		-0.015669	0.638699	0.021832	-0.768988	-16.308063	78.997406	164.193641
34456		-0.015614	0.638701	0.021857	-0.768986	-16.299993	78.998325	164.208193
34457		-0.015577	0.638675	0.021847	-0.769009	-16.276155	78.995571	164.234287
34458		-0.015611	0.638679	0.021764	-0.769007	-16.251978	78.997147	164.248876
34459		-0.015591	0.638682	0.021758	-0.769005	-16.242639	78.998080	164.259399
34460		-0.015576	0.638675	0.021718	-0.769012	-16.217640	78.998249	164.282295
34461		-0.015549	0.638675	0.021666	-0.769015	-16.184127	78.999786	164.313827
34462		-0.015553	0.638737	0.021608	-0.768964	-16.173076	79.009829	164.319825
34463		-0.015544	0.638785	0.021555	-0.768926	-16.156062	79.017908	164.333249
34464		-0.015619	0.638837	0.021475	-0.768884	-16.158743	79.025475	164.317945
34465		-0.015661	0.638883	0.021421	-0.768846	-16.159080	79.032227	164.309811
34466		-0.015703	0.638936	0.021413	-0.768801	-16.182582	79.039222	164.282257
34467		-0.015759	0.639034	0.021403	-0.768719	-16.219547	79.052256	164.239881
34468		-0.015776	0.639130	0.021389	-0.768640	-16.239792	79.065900	164.217097
34469		-0.015744	0.639172	0.021404	-0.768605	-16.244234	79.072288	164.216508
34470		-0.015668	0.639153	0.021464	-0.768620	-16.238994	79.069939	164.232829
34471		-0.015591	0.639117	0.021453	-0.768652	-16.197844	79.066575	164.279343
34472		-0.015513	0.639057	0.021463	-0.768704	-16.160808	79.059399	164.323495
34473		-0.015437	0.639032	0.021456	-0.768726	-16.123755	79.057616	164.366173
34474		-0.015388	0.639043	0.021442	-0.768718	-16.101603	79.060391	164.391188
34475		-0.015372	0.639070	0.021399	-0.768697	-16.082280	79.065557	164.408353
34476		-0.015330	0.639047	0.021418	-0.768716	-16.070576	79.062743	164.424968
34477		-0.015381	0.639079	0.021372	-0.768691	-16.075201	79.067097	164.412405
34478		-0.015460	0.639188	0.021290	-0.768601	-16.090652	79.082739	164.383942
34479		-0.015521	0.639312	0.021233	-0.768497	-16.113762	79.100482	164.351151
34480		-0.015577	0.639438	0.021178	-0.768393	-16.136624	79.118438	164.319293
34481		-0.015606	0.639555	0.021166	-0.768295	-16.167098	79.134960	164.285417
34482		-0.015652	0.639685	0.021139	-0.768187	-16.199867	79.153087	164.246745
34483		-0.015645	0.639793	0.021154	-0.768097	-16.227476	79.168458	164.220894
34484		-0.015596	0.639844	0.021229	-0.768053	-16.254505	79.175299	164.204010
34485		-0.015533	0.639791	0.021304	-0.768096	-16.253810	79.167540	164.215885
34486		-0.015422	0.639710	0.021411	-0.768163	-16.243566	79.156052	164.243948
34487		-0.015372	0.639649	0.021463	-0.768214	-16.235159	79.147281	164.260585
34488		-0.015331	0.639572	0.021498	-0.768278	-16.219087	79.136354	164.282859
34489		-0.015311	0.639429	0.021489	-0.768397	-16.177104	79.116400	164.325783
34490		-0.015258	0.639250	0.021506	-0.768546	-16.126656	79.091595	164.381922
34491		-0.015254	0.639264	0.021438	-0.768537	-16.097615	79.094957	164.405738
34492		-0.015196	0.639246	0.021427	-0.768553	-16.067145	79.093841	164.440084
34493		-0.015190	0.639186	0.021361	-0.768605	-16.021927	79.086714	164.480393
34494		-0.015136	0.639218	0.021311	-0.768581	-15.986377	79.093385	164.516273
34495		-0.015103	0.639229	0.021268	-0.768574	-15.956486	79.096442	164.545360
34496		-0.015044	0.639248	0.021278	-0.768559	-15.943069	79.100249	164.564309
34497		-0.014977	0.639260	0.021304	-0.768550	-15.932383	79.102761	164.582598
34498		-0.014877	0.639297	0.021373	-0.768519	-15.934856	79.108767	164.593912
34499		-0.014810	0.639320	0.021403	-0.768500	-15.928185	79.112876	164.608451
34500		-0.014780	0.639395	0.021393	-0.768439	-15.928047	79.124443	164.610235
34501		-0.014725	0.639431	0.021416	-0.768409	-15.925712	79.130264	164.618930
34502		-0.014668	0.639491	0.021419	-0.768360	-15.918473	79.139935	164.631036
34503		-0.014633	0.639448	0.021433	-0.768396	-15.902692	79.134245	164.650762
34504		-0.014601	0.639423	0.021422	-0.768418	-15.880188	79.131590	164.674992
34505		-0.014571	0.639498	0.021425	-0.768356	-15.886537	79.142894	164.671320
34506		-0.014497	0.639428	0.021475	-0.768414	-15.867070	79.133337	164.700935
34507		-0.014420	0.639427	0.021475	-0.768417	-15.837905	79.134714	164.736283
34508		-0.014413	0.639452	0.021448	-0.768397	-15.828100	79.139005	164.744448
34509		-0.014328	0.639438	0.021420	-0.768411	-15.780474	79.139240	164.796825
34510		-0.014215	0.639349	0.021435	-0.768486	-15.726867	79.128459	164.860795
34511		-0.014095	0.639175	0.021420	-0.768634	-15.638811	79.106226	164.957436
34512		-0.013978	0.639046	0.021379	-0.768744	-15.550158	79.090786	165.052275
34513		-0.013866	0.638906	0.021346	-0.768864	-15.464756	79.073468	165.144164
34514		-0.013707	0.638786	0.021365	-0.768966	-15.389710	79.059049	165.233646
34515		-0.013594	0.638798	0.021337	-0.768959	-15.337428	79.063472	165.292822
34516		-0.013501	0.638828	0.021289	-0.768937	-15.287209	79.070545	165.346776
34517		-0.013405	0.638839	0.021257	-0.768930	-15.239338	79.074678	165.399827
34518		-0.013265	0.638847	0.021270	-0.768926	-15.194409	79.078220	165.457132
34519		-0.013195	0.638880	0.021213	-0.768901	-15.148912	79.085439	165.503743
34520		-0.013101	0.638949	0.021170	-0.768846	-15.108159	79.097977	165.548594
34521		-0.013020	0.639000	0.021117	-0.768807	-15.063988	79.107921	165.595102
34522		-0.012926	0.639032	0.021081	-0.768783	-15.018513	79.115010	165.645234
34523		-0.012856	0.639065	0.021024	-0.768758	-14.972754	79.122203	165.692110
34524		-0.012786	0.639098	0.020961	-0.768733	-14.924333	79.129424	165.741037
34525		-0.012707	0.639118	0.020877	-0.768720	-14.860130	79.135409	165.804931
34526		-0.012581	0.639148	0.020837	-0.768699	-14.800207	79.142830	165.871715
34527		-0.012461	0.639156	0.020762	-0.768696	-14.722734	79.147637	165.952929
34528		-0.012297	0.639149	0.020776	-0.768704	-14.666069	79.149441	166.024076
34529		-0.012183	0.639129	0.020751	-0.768723	-14.607569	79.149253	166.089770
34530		-0.012071	0.639130	0.020744	-0.768724	-14.562679	79.151607	166.143254
34531		-0.011959	0.639121	0.020761	-0.768733	-14.526408	79.152104	166.189962
34532		-0.011759	0.639099	0.020848	-0.768752	-14.486422	79.151064	166.253388
34533		-0.011611	0.639109	0.020900	-0.768744	-14.456827	79.154401	166.299239
34534		-0.011454	0.639164	0.020973	-0.768699	-14.441592	79.164017	166.333147
34535		-0.011321	0.639203	0.021001	-0.768668	-14.411674	79.171584	166.376213
34536		-0.011175	0.639273	0.021037	-0.768611	-14.386190	79.183710	166.416519
34537		-0.011057	0.639353	0.021034	-0.768546	-14.355574	79.197564	166.456501
34538		-0.010865	0.639424	0.021116	-0.768487	-14.334426	79.209984	166.499969
34539		-0.010753	0.639432	0.021077	-0.768484	-14.274982	79.213830	166.565280
34540		-0.010618	0.639479	0.021082	-0.768446	-14.235212	79.223085	166.616398
34541		-0.010559	0.639514	0.021016	-0.768420	-14.188826	79.230277	166.662175
34542		-0.010439	0.639593	0.020976	-0.768357	-14.139458	79.244662	166.718101
34543		-0.010360	0.639671	0.020909	-0.768294	-14.093110	79.258563	166.765482
34544		-0.010288	0.639778	0.020844	-0.768208	-14.055568	79.276533	166.803554
34545		-0.010190	0.639882	0.020811	-0.768124	-14.022108	79.293840	166.842276
34546		-0.010133	0.640002	0.020765	-0.768026	-14.001168	79.313074	166.864037
34547		-0.010029	0.640099	0.020735	-0.767947	-13.965427	79.329501	166.905786
34548		-0.009899	0.640195	0.020789	-0.767867	-13.958751	79.344899	166.927455
34549		-0.009794	0.640317	0.020789	-0.767767	-13.940701	79.364497	166.954038
34550		-0.009729	0.640443	0.020759	-0.767664	-13.925311	79.384444	166.972312
34551		-0.009669	0.640566	0.020741	-0.767562	-13.916866	79.403680	166.984101
34552		-0.009544	0.640708	0.020810	-0.767443	-13.927336	79.425469	166.989487
34553		-0.009519	0.640833	0.020774	-0.767340	-13.924117	79.444653	166.991704
34554		-0.009459	0.640950	0.020795	-0.767242	-13.932894	79.462356	166.989533
34555		-0.009414	0.641079	0.020808	-0.767135	-13.945681	79.481659	166.981450
34556		-0.009357	0.641282	0.020847	-0.766965	-13.980641	79.511476	166.954328
34557		-0.009294	0.641516	0.020917	-0.766768	-14.034059	79.545523	166.911660
34558		-0.009229	0.641776	0.020964	-0.766550	-14.080562	79.583572	166.874287
34559		-0.009147	0.642067	0.021027	-0.766305	-14.134446	79.626375	166.832108
34560		-0.009084	0.642382	0.021021	-0.766042	-14.167889	79.673390	166.803314
34561		-0.009010	0.642628	0.021032	-0.765837	-14.191970	79.710285	166.786078
34562		-0.008915	0.642833	0.021066	-0.765665	-14.210841	79.741196	166.777676
34563		-0.008849	0.643009	0.021090	-0.765517	-14.230924	79.767571	166.764979
34564		-0.008830	0.643159	0.021108	-0.765390	-14.261741	79.789555	166.737066
34565		-0.008765	0.643271	0.021152	-0.765296	-14.279496	79.806158	166.728250
34566		-0.008692	0.643370	0.021243	-0.765211	-14.314022	79.820461	166.706987
34567		-0.008624	0.643510	0.021268	-0.765094	-14.326734	79.841547	166.701817
34568		-0.008514	0.643654	0.021322	-0.764973	-14.337445	79.863584	166.704389
34569		-0.008413	0.643766	0.021336	-0.764879	-14.325834	79.881572	166.725382
34570		-0.008314	0.643866	0.021338	-0.764795	-14.306773	79.897961	166.752688
34571		-0.008213	0.643946	0.021331	-0.764729	-14.278516	79.911542	166.788616
34572		-0.008111	0.643987	0.021319	-0.764697	-14.238898	79.919558	166.835498
34573		-0.008027	0.644038	0.021300	-0.764655	-14.205360	79.928846	166.874349
34574		-0.007996	0.644084	0.021222	-0.764619	-14.163580	79.937457	166.912205
34575		-0.007967	0.644087	0.021121	-0.764619	-14.102777	79.940108	166.967228
34576		-0.007939	0.644116	0.021074	-0.764596	-14.074129	79.945734	166.994305
34577		-0.007978	0.644186	0.020989	-0.764539	-14.061864	79.956661	166.996441
34578		-0.007934	0.644263	0.021016	-0.764474	-14.072252	79.968269	166.991851
34579		-0.007980	0.644319	0.020971	-0.764427	-14.080423	79.976329	166.976336
34580		-0.007997	0.644405	0.020990	-0.764354	-14.114086	79.988232	166.942816
34581		-0.007998	0.644474	0.021018	-0.764295	-14.142241	79.997759	166.916806
34582		-0.007956	0.644567	0.021112	-0.764215	-14.190325	80.010401	166.879722
34583		-0.007876	0.644625	0.021185	-0.764165	-14.204816	80.019100	166.877718
34584		-0.007750	0.644712	0.021281	-0.764090	-14.218461	80.032442	166.882156
34585		-0.007610	0.644816	0.021346	-0.764002	-14.214013	80.049161	166.903161
34586		-0.007443	0.644943	0.021446	-0.763893	-14.220134	80.069101	166.918784
34587		-0.007331	0.645079	0.021466	-0.763779	-14.211360	80.090622	166.938313
34588		-0.007263	0.645221	0.021494	-0.763659	-14.226474	80.111997	166.930964
34589		-0.007250	0.645371	0.021478	-0.763533	-14.243303	80.134463	166.913905
34590		-0.007218	0.645507	0.021543	-0.763416	-14.290840	80.153806	166.874221
34591		-0.007237	0.645633	0.021522	-0.763310	-14.314330	80.172104	166.847501
34592		-0.007290	0.645745	0.021499	-0.763216	-14.348104	80.187813	166.807528
34593		-0.007300	0.645825	0.021493	-0.763148	-14.365904	80.199516	166.788336
34594		-0.007330	0.645912	0.021477	-0.763074	-14.388886	80.211919	166.761678
34595		-0.007344	0.645984	0.021485	-0.763013	-14.413891	80.221997	166.736134
34596		-0.007333	0.646040	0.021461	-0.762967	-14.408482	80.230677	166.740481
34597		-0.007333	0.646051	0.021472	-0.762957	-14.416573	80.232126	166.733253
34598		-0.007289	0.646064	0.021572	-0.762943	-14.451440	80.233162	166.710187
34599		-0.007317	0.646046	0.021572	-0.762958	-14.459128	80.230016	166.700182
34600		-0.007304	0.646035	0.021619	-0.762967	-14.475437	80.227799	166.688704
34601		-0.007355	0.645977	0.021598	-0.763016	-14.473769	80.218828	166.684563
34602		-0.007391	0.645913	0.021596	-0.763069	-14.474941	80.208865	166.680306
34603		-0.007462	0.645847	0.021585	-0.763125	-14.485491	80.198016	166.663094
34604		-0.007520	0.645817	0.021650	-0.763148	-14.536320	80.191447	166.612858
34605		-0.007595	0.645803	0.021683	-0.763159	-14.581460	80.187375	166.564272
34606		-0.007662	0.645834	0.021739	-0.763130	-14.644403	80.189724	166.500463
34607		-0.007717	0.645869	0.021774	-0.763099	-14.692152	80.193153	166.451031
34608		-0.007759	0.645929	0.021840	-0.763046	-14.756094	80.199831	166.389090
34609		-0.007774	0.645995	0.021908	-0.762987	-14.810682	80.208069	166.338833
34610		-0.007777	0.646053	0.021987	-0.762937	-14.864249	80.214944	166.291360
34611		-0.007795	0.646103	0.022078	-0.762891	-14.928346	80.220279	166.233251
34612		-0.007724	0.646177	0.022242	-0.762824	-14.997520	80.229586	166.183164
34613		-0.007731	0.646236	0.022323	-0.762772	-15.054560	80.236474	166.132147
34614		-0.007664	0.646288	0.022481	-0.762724	-15.117571	80.242592	166.087414
34615		-0.007677	0.646330	0.022553	-0.762686	-15.168501	80.247120	166.041244
34616		-0.007667	0.646376	0.022671	-0.762644	-15.234231	80.251824	165.985980
34617		-0.007707	0.646398	0.022745	-0.762622	-15.293274	80.252887	165.929704
34618		-0.007746	0.646426	0.022807	-0.762597	-15.347500	80.254985	165.877341
34619		-0.007755	0.646410	0.022895	-0.762607	-15.392291	80.250924	165.838947
34620		-0.007733	0.646386	0.023014	-0.762624	-15.438027	80.245666	165.804670
34621		-0.007715	0.646377	0.023107	-0.762629	-15.474884	80.242994	165.776881
34622		-0.007682	0.646356	0.023193	-0.762645	-15.499583	80.239074	165.761820
34623		-0.007651	0.646346	0.023295	-0.762651	-15.535947	80.236273	165.736288
34624		-0.007621	0.646385	0.023380	-0.762615	-15.575065	80.241082	165.706544
34625		-0.007610	0.646470	0.023423	-0.762542	-15.611592	80.252767	165.674376
34626		-0.007644	0.646563	0.023420	-0.762463	-15.645521	80.265616	165.637396
34627		-0.007648	0.646675	0.023439	-0.762367	-15.682634	80.281521	165.601530
34628		-0.007598	0.646790	0.023547	-0.762267	-15.742479	80.297126	165.554572
34629		-0.007612	0.646879	0.023561	-0.762191	-15.775900	80.309496	165.521058
34630		-0.007647	0.646967	0.023595	-0.762115	-15.828597	80.320879	165.468262
34631		-0.007642	0.647035	0.023628	-0.762056	-15.859232	80.330208	165.440718
34632		-0.007579	0.647094	0.023722	-0.762004	-15.893978	80.338318	165.418731
34633		-0.007534	0.647138	0.023761	-0.761965	-15.905100	80.344948	165.414489
34634		-0.007529	0.647200	0.023753	-0.761913	-15.912853	80.354143	165.406470
34635		-0.007462	0.647247	0.023780	-0.761873	-15.909585	80.361908	165.417342
34636		-0.007423	0.647316	0.023825	-0.761813	-15.931779	80.371856	165.402001
34637		-0.007357	0.647366	0.023842	-0.761771	-15.924022	80.380081	165.416429
34638		-0.007352	0.647405	0.023833	-0.761738	-15.926828	80.386136	165.413416
34639		-0.007312	0.647412	0.023845	-0.761732	-15.917925	80.387716	165.426469
34640		-0.007232	0.647428	0.023904	-0.761718	-15.917000	80.390493	165.438736
34641		-0.007221	0.647434	0.023913	-0.761712	-15.918306	80.391460	165.439046
34642		-0.007173	0.647447	0.023989	-0.761699	-15.939976	80.392833	165.427457
34643		-0.007144	0.647451	0.024013	-0.761695	-15.940560	80.393616	165.431137
34644		-0.007079	0.647455	0.024104	-0.761690	-15.960437	80.393835	165.423907
34645		-0.007065	0.647438	0.024139	-0.761703	-15.968447	80.391033	165.419930
34646		-0.007031	0.647423	0.024162	-0.761716	-15.961937	80.389044	165.431142
34647		-0.006996	0.647394	0.024170	-0.761740	-15.944232	80.385450	165.452286
34648		-0.006941	0.647390	0.024199	-0.761743	-15.934653	80.385445	165.468758
34649		-0.006919	0.647393	0.024195	-0.761741	-15.924254	80.386414	165.480553
34650		-0.006915	0.647397	0.024177	-0.761738	-15.914414	80.387487	165.489308
34651		-0.006909	0.647408	0.024132	-0.761730	-15.891018	80.389958	165.509543
34652		-0.006921	0.647436	0.024093	-0.761707	-15.883169	80.394611	165.513222
34653		-0.006951	0.647462	0.024023	-0.761687	-15.865730	80.399044	165.522474
34654		-0.006942	0.647524	0.024024	-0.761634	-15.877004	80.408237	165.511979
34655		-0.006975	0.647571	0.023998	-0.761595	-15.889131	80.414875	165.495165
34656		-0.007030	0.647630	0.023933	-0.761547	-15.893149	80.423445	165.481276
34657		-0.007017	0.647676	0.023926	-0.761508	-15.894325	80.430509	165.480596
34658		-0.006989	0.647747	0.023943	-0.761447	-15.908067	80.441107	165.470452
34659		-0.006959	0.647815	0.023946	-0.761389	-15.913096	80.451631	165.468151
34660		-0.006913	0.647899	0.023995	-0.761317	-15.937998	80.463785	165.450931
34661		-0.006871	0.647951	0.023992	-0.761273	-15.931202	80.472260	165.460898
34662		-0.006847	0.648003	0.023981	-0.761229	-15.927372	80.480519	165.465773
34663		-0.006802	0.648043	0.023947	-0.761197	-15.899852	80.487924	165.494161
34664		-0.006754	0.648051	0.023939	-0.761191	-15.876989	80.490131	165.520341
34665		-0.006741	0.647992	0.023879	-0.761243	-15.825807	80.482987	165.567700
34666		-0.006713	0.647890	0.023838	-0.761331	-15.768995	80.469605	165.623469
34667		-0.006720	0.647784	0.023765	-0.761423	-15.709968	80.455401	165.675977
34668		-0.006762	0.647653	0.023707	-0.761537	-15.667030	80.436525	165.710849
34669		-0.006770	0.647521	0.023677	-0.761650	-15.624439	80.417689	165.750306
34670		-0.006804	0.647406	0.023614	-0.761749	-15.580344	80.401547	165.786603
34671		-0.006805	0.647326	0.023565	-0.761818	-15.537401	80.390786	165.825487
34672		-0.006797	0.647281	0.023523	-0.761858	-15.502126	80.385233	165.858011
34673		-0.006789	0.647256	0.023478	-0.761881	-15.469853	80.382436	165.887295
34674		-0.006792	0.647251	0.023445	-0.761886	-15.453260	80.382291	165.900855
34675		-0.006797	0.647238	0.023455	-0.761897	-15.457667	80.380142	165.896925
34676		-0.006788	0.647211	0.023490	-0.761919	-15.465209	80.375795	165.892968
34677		-0.006803	0.647164	0.023552	-0.761957	-15.492961	80.367448	165.869054
34678		-0.006832	0.647140	0.023592	-0.761975	-15.520527	80.362731	165.842400
34679		-0.006831	0.647095	0.023648	-0.762012	-15.538497	80.355108	165.829044
34680		-0.006853	0.647090	0.023653	-0.762016	-15.548768	80.353880	165.817350
34681		-0.006848	0.647114	0.023662	-0.761995	-15.557041	80.357310	165.810232
34682		-0.006835	0.647166	0.023642	-0.761952	-15.552856	80.365442	165.813788
34683		-0.006836	0.647234	0.023609	-0.761895	-15.552021	80.375945	165.811902
34684		-0.006873	0.647303	0.023491	-0.761840	-15.523521	80.387399	165.827795
34685		-0.006869	0.647378	0.023454	-0.761777	-15.520133	80.399094	165.828534
34686		-0.006862	0.647480	0.023404	-0.761692	-15.514835	80.414939	165.830321
34687		-0.006867	0.647584	0.023338	-0.761605	-15.507076	80.431259	165.832280
34688		-0.006846	0.647690	0.023313	-0.761516	-15.509350	80.447560	165.829605
34689		-0.006826	0.647762	0.023268	-0.761457	-15.493896	80.459181	165.843064
34690		-0.006764	0.647839	0.023246	-0.761393	-15.473555	80.472005	165.866580
34691		-0.006697	0.647897	0.023215	-0.761344	-15.442449	80.482436	165.900619
34692		-0.006677	0.647938	0.023157	-0.761311	-15.412896	80.489913	165.927135
34693		-0.006579	0.647954	0.023139	-0.761300	-15.364704	80.494432	165.981751
34694		-0.006470	0.647958	0.023199	-0.761295	-15.349560	80.496137	166.010729
34695		-0.006419	0.647998	0.023170	-0.761263	-15.321392	80.503439	166.040663
34696		-0.006376	0.647969	0.023182	-0.761287	-15.302885	80.499865	166.063598
34697		-0.006363	0.647927	0.023188	-0.761322	-15.290899	80.493992	166.077126
34698		-0.006307	0.647921	0.023250	-0.761326	-15.296794	80.493071	166.080781
34699		-0.006306	0.647875	0.023244	-0.761366	-15.283090	80.486524	166.094141
34700		-0.006335	0.647781	0.023195	-0.761447	-15.249011	80.473062	166.121890
34701		-0.006353	0.647673	0.023195	-0.761539	-15.232299	80.456956	166.137154
34702		-0.006392	0.647578	0.023186	-0.761620	-15.222669	80.442523	166.142852
34703		-0.006440	0.647482	0.023175	-0.761701	-15.216231	80.427879	166.144628
34704		-0.006454	0.647393	0.023197	-0.761776	-15.213407	80.414279	166.148028
34705		-0.006488	0.647327	0.023166	-0.761833	-15.197009	80.404456	166.159207
34706		-0.006544	0.647298	0.023137	-0.761858	-15.199882	80.399636	166.149378
34707		-0.006566	0.647247	0.023121	-0.761901	-15.189656	80.392086	166.156536
34708		-0.006610	0.647220	0.023082	-0.761925	-15.182133	80.388014	166.157301
34709		-0.006653	0.647156	0.023064	-0.761979	-15.177515	80.378212	166.156928
34710		-0.006667	0.647098	0.023082	-0.762028	-15.179290	80.369095	166.155570
34711		-0.006710	0.647005	0.023056	-0.762107	-15.163687	80.355293	166.165531
34712		-0.006836	0.646910	0.022980	-0.762189	-15.157828	80.340333	166.155043
34713		-0.006930	0.646801	0.022937	-0.762282	-15.151314	80.323344	166.150381
34714		-0.007011	0.646713	0.022906	-0.762357	-15.150528	80.309497	166.142101
34715		-0.007095	0.646656	0.022877	-0.762406	-15.158738	80.300033	166.124721
34716		-0.007209	0.646615	0.022811	-0.762441	-15.164769	80.293107	166.103995
34717		-0.007253	0.646601	0.022819	-0.762452	-15.184319	80.290049	166.081554
34718		-0.007257	0.646624	0.022818	-0.762433	-15.190418	80.293321	166.075077
34719		-0.007239	0.646624	0.022830	-0.762433	-15.189384	80.293433	166.078521
34720		-0.007221	0.646662	0.022862	-0.762399	-15.206504	80.298785	166.065456
34721		-0.007212	0.646690	0.022856	-0.762376	-15.205512	80.303068	166.066640
34722		-0.007233	0.646714	0.022871	-0.762355	-15.227329	80.305877	166.044381
34723		-0.007272	0.646724	0.022881	-0.762346	-15.250970	80.306405	166.018327
34724		-0.007316	0.646763	0.022944	-0.762311	-15.310778	80.310096	165.960060
34725		-0.007381	0.646767	0.022982	-0.762306	-15.358015	80.308654	165.910665
34726		-0.007385	0.646806	0.023083	-0.762270	-15.420642	80.312336	165.855921
34727		-0.007425	0.646850	0.023103	-0.762231	-15.457628	80.317640	165.817317
34728		-0.007504	0.646913	0.023103	-0.762177	-15.505246	80.325217	165.763288
34729		-0.007545	0.646994	0.023123	-0.762107	-15.551223	80.335753	165.715544
34730		-0.007569	0.647083	0.023173	-0.762030	-15.607285	80.347258	165.661598
34731		-0.007623	0.647172	0.023174	-0.761953	-15.651732	80.359160	165.612823
34732		-0.007663	0.647271	0.023223	-0.761867	-15.716613	80.371795	165.548612
34733		-0.007702	0.647363	0.023217	-0.761789	-15.751625	80.384417	165.510058
34734		-0.007782	0.647453	0.023205	-0.761713	-15.800647	80.396017	165.453553
34735		-0.007808	0.647522	0.023193	-0.761654	-15.821799	80.405785	165.429165
34736		-0.007850	0.647602	0.023169	-0.761586	-15.846623	80.416995	165.399041
34737		-0.007866	0.647684	0.023159	-0.761517	-15.867437	80.428688	165.376083
34738		-0.007857	0.647777	0.023159	-0.761437	-15.885396	80.442443	165.358855
34739		-0.007885	0.647860	0.023139	-0.761367	-15.906825	80.454258	165.333521
34740		-0.007882	0.647906	0.023113	-0.761329	-15.903295	80.461565	165.335171
34741		-0.007923	0.647975	0.023068	-0.761271	-15.913906	80.471582	165.317571
34742		-0.007967	0.648012	0.023028	-0.761240	-15.921459	80.476856	165.303211
34743		-0.007990	0.648053	0.022978	-0.761207	-15.915348	80.483177	165.303393
34744		-0.007984	0.648106	0.022965	-0.761162	-15.918428	80.491269	165.299706
34745		-0.008004	0.648152	0.022950	-0.761123	-15.930511	80.497787	165.284752
34746		-0.007972	0.648214	0.022977	-0.761070	-15.945202	80.507031	165.274837
34747		-0.007970	0.648284	0.022967	-0.761010	-15.956490	80.517404	165.262869
34748		-0.007990	0.648374	0.022917	-0.760935	-15.960490	80.530987	165.253170
34749		-0.007982	0.648441	0.022922	-0.760878	-15.976107	80.540832	165.238681
34750		-0.007950	0.648526	0.022948	-0.760805	-15.996304	80.553287	165.223132
34751		-0.007929	0.648607	0.022979	-0.760735	-16.023013	80.564923	165.200638
34752		-0.007873	0.648695	0.023057	-0.760658	-16.060371	80.577381	165.174135
34753		-0.007879	0.648768	0.023094	-0.760595	-16.099865	80.587131	165.137115
34754		-0.007850	0.648806	0.023184	-0.760560	-16.142893	80.591518	165.103820
34755		-0.007857	0.648803	0.023237	-0.760561	-16.172848	80.589944	165.077615
34756		-0.007892	0.648814	0.023281	-0.760550	-16.214047	80.589833	165.037158
34757		-0.007878	0.648831	0.023327	-0.760534	-16.236338	80.591785	165.019741
34758		-0.007833	0.648811	0.023410	-0.760549	-16.254931	80.588231	165.011594
34759		-0.007810	0.648794	0.023484	-0.760562	-16.278845	80.584755	164.995576
34760		-0.007770	0.648808	0.023558	-0.760548	-16.303198	80.586188	164.980444
34761		-0.007733	0.648810	0.023597	-0.760545	-16.308293	80.586451	164.981498
34762		-0.007686	0.648811	0.023633	-0.760544	-16.306465	80.586916	164.990097
34763		-0.007638	0.648834	0.023627	-0.760525	-16.288196	80.591388	165.011840
34764		-0.007634	0.648901	0.023595	-0.760469	-16.286292	80.601834	165.011377
34765		-0.007606	0.648909	0.023536	-0.760464	-16.245673	80.604729	165.049509
34766		-0.007600	0.648927	0.023486	-0.760450	-16.221356	80.608506	165.070220
34767		-0.007605	0.648943	0.023444	-0.760438	-16.205230	80.611482	165.082555
34768		-0.007568	0.648979	0.023479	-0.760406	-16.216651	80.616847	165.076974
34769		-0.007600	0.649021	0.023453	-0.760371	-16.227334	80.622691	165.061548
34770		-0.007635	0.649066	0.023442	-0.760332	-16.247745	80.628798	165.037430
34771		-0.007666	0.649111	0.023428	-0.760294	-16.265407	80.634964	165.016088
34772		-0.007631	0.649179	0.023463	-0.760235	-16.285119	80.644833	165.002062
34773		-0.007603	0.649237	0.023431	-0.760188	-16.270254	80.654388	165.016562
34774		-0.007562	0.649291	0.023431	-0.760141	-16.265404	80.663172	165.024746
34775		-0.007526	0.649361	0.023429	-0.760082	-16.266529	80.674101	165.026395
34776		-0.007458	0.649417	0.023467	-0.760034	-16.270499	80.682919	165.031006
34777		-0.007439	0.649453	0.023452	-0.760004	-16.262755	80.688816	165.039030
34778		-0.007405	0.649488	0.023468	-0.759973	-16.264789	80.694396	165.041146
34779		-0.007418	0.649511	0.023451	-0.759955	-16.267689	80.697677	165.035771
34780		-0.007426	0.649550	0.023466	-0.759921	-16.288338	80.702906	165.015630
34781		-0.007471	0.649577	0.023476	-0.759896	-16.320652	80.705794	164.980471
34782		-0.007493	0.649627	0.023551	-0.759851	-16.382679	80.711016	164.922800
34783		-0.007527	0.649670	0.023577	-0.759813	-16.421717	80.716144	164.883077
34784		-0.007570	0.649731	0.023596	-0.759760	-16.465931	80.723632	164.836918
34785		-0.007572	0.649769	0.023655	-0.759726	-16.508292	80.727972	164.799206
34786		-0.007501	0.649838	0.023793	-0.759663	-16.566748	80.736697	164.757720
34787		-0.007462	0.649900	0.023895	-0.759607	-16.619406	80.744542	164.716540
34788		-0.007370	0.649957	0.024028	-0.759555	-16.663494	80.752174	164.690713
34789		-0.007284	0.650043	0.024178	-0.759478	-16.726266	80.763459	164.647124
34790		-0.007212	0.650184	0.024313	-0.759353	-16.802432	80.782794	164.587812
34791		-0.007101	0.650322	0.024449	-0.759232	-16.860714	80.802432	164.549512
34792		-0.006973	0.650470	0.024607	-0.759101	-16.926594	80.823581	164.506863
34793		-0.006839	0.650611	0.024764	-0.758977	-16.986654	80.843746	164.470437
34794		-0.006714	0.650765	0.024895	-0.758841	-17.041367	80.866210	164.436537
34795		-0.006575	0.650903	0.025033	-0.758720	-17.089789	80.886469	164.410634
34796		-0.006470	0.651062	0.025178	-0.758580	-17.162005	80.908881	164.358662
34797		-0.006388	0.651189	0.025296	-0.758467	-17.222709	80.926727	164.314193
34798		-0.006295	0.651294	0.025398	-0.758374	-17.263935	80.941975	164.288896
34799		-0.006240	0.651403	0.025447	-0.758279	-17.294867	80.958045	164.266303
34800		-0.006220	0.651543	0.025451	-0.758159	-17.325946	80.978642	164.237128
34801		-0.006163	0.651646	0.025469	-0.758070	-17.337650	80.994520	164.231590
34802		-0.006111	0.651719	0.025477	-0.758008	-17.338314	81.006133	164.235786
34803		-0.006073	0.651747	0.025474	-0.757984	-17.327486	81.011095	164.249418
34804		-0.006001	0.651801	0.025493	-0.757938	-17.318989	81.020087	164.265347
34805		-0.005972	0.651824	0.025450	-0.757919	-17.289244	81.024981	164.293967
34806		-0.005999	0.651834	0.025396	-0.757913	-17.275131	81.026851	164.301438
34807		-0.006011	0.651837	0.025323	-0.757912	-17.241974	81.028550	164.327711
34808		-0.006064	0.651852	0.025254	-0.757901	-17.232468	81.030951	164.327326
34809		-0.006115	0.651865	0.025182	-0.757892	-17.220623	81.033205	164.329173
34810		-0.006169	0.651866	0.025131	-0.757892	-17.218072	81.033177	164.323127
34811		-0.006225	0.651856	0.025058	-0.757903	-17.201047	81.031872	164.329681
34812		-0.006237	0.651870	0.025056	-0.757891	-17.209533	81.033767	164.320070
34813		-0.006298	0.651858	0.024989	-0.757903	-17.197527	81.032044	164.321659
34814		-0.006358	0.651869	0.024922	-0.757895	-17.191481	81.033686	164.317431
34815		-0.006383	0.651893	0.024896	-0.757875	-17.195500	81.037092	164.309196
34816		-0.006413	0.651931	0.024863	-0.757844	-17.201518	81.042527	164.298068
34817		-0.006413	0.652002	0.024843	-0.757783	-17.210332	81.053346	164.287699
34818		-0.006421	0.652094	0.024792	-0.757705	-17.211516	81.067575	164.281624
34819		-0.006401	0.652177	0.024752	-0.757635	-17.202810	81.080854	164.288709
34820		-0.006375	0.652276	0.024732	-0.757551	-17.207500	81.096144	164.284494
34821		-0.006373	0.652366	0.024679	-0.757475	-17.202274	81.110389	164.285588
34822		-0.006369	0.652432	0.024655	-0.757419	-17.206017	81.120554	164.280185
34823		-0.006398	0.652485	0.024605	-0.757375	-17.206186	81.128538	164.273535
34824		-0.006426	0.652552	0.024549	-0.757319	-17.207035	81.138887	164.265889
34825		-0.006432	0.652615	0.024511	-0.757265	-17.206382	81.148676	164.262916
34826		-0.006382	0.652706	0.024522	-0.757187	-17.214530	81.162737	164.259774
34827		-0.006363	0.652819	0.024480	-0.757091	-17.214000	81.180417	164.258414
34828		-0.006282	0.652931	0.024507	-0.756995	-17.222395	81.197921	164.258773
34829		-0.006212	0.653067	0.024484	-0.756879	-17.215081	81.219631	164.269863
34830		-0.006163	0.653196	0.024445	-0.756769	-17.206023	81.240262	164.279735
34831		-0.006100	0.653354	0.024424	-0.756633	-17.209420	81.265167	164.279754
34832		-0.006042	0.653498	0.024368	-0.756512	-17.191759	81.288387	164.297517
34833		-0.005999	0.653640	0.024305	-0.756392	-17.175904	81.311295	164.311761
34834		-0.005973	0.653782	0.024245	-0.756271	-17.170002	81.333779	164.314802
34835		-0.005957	0.653895	0.024170	-0.756176	-17.152194	81.352108	164.327800
34836		-0.005951	0.654002	0.024117	-0.756085	-17.150071	81.368904	164.326134
34837		-0.005961	0.654105	0.024058	-0.755998	-17.150708	81.384834	164.319875
34838		-0.006017	0.654199	0.023967	-0.755919	-17.153684	81.399125	164.304899
34839		-0.006051	0.654276	0.023880	-0.755854	-17.142398	81.411377	164.306384
34840		-0.006089	0.654363	0.023785	-0.755781	-17.132154	81.425142	164.305765
34841		-0.006134	0.654462	0.023706	-0.755698	-17.137089	81.440171	164.290718
34842		-0.006118	0.654551	0.023680	-0.755622	-17.139872	81.453943	164.287137
34843		-0.006134	0.654645	0.023602	-0.755543	-17.130659	81.468841	164.288656
34844		-0.006159	0.654746	0.023541	-0.755458	-17.137258	81.484163	164.275108
34845		-0.006180	0.654804	0.023458	-0.755409	-17.117191	81.493939	164.286746
34846		-0.006214	0.654896	0.023364	-0.755333	-17.106107	81.508416	164.287453
34847		-0.006243	0.654944	0.023302	-0.755292	-17.098807	81.516090	164.287221
34848		-0.006275	0.654997	0.023227	-0.755248	-17.086781	81.524692	164.290622
34849		-0.006286	0.655033	0.023175	-0.755219	-17.073034	81.530616	164.299217
34850		-0.006282	0.655045	0.023151	-0.755209	-17.060626	81.533071	164.309972
34851		-0.006282	0.655047	0.023088	-0.755209	-17.025039	81.534644	164.340457
34852		-0.006281	0.655112	0.023022	-0.755155	-17.005893	81.545465	164.354326
34853		-0.006292	0.655185	0.022932	-0.755094	-16.980377	81.557641	164.371579
34854		-0.006284	0.655240	0.022865	-0.755049	-16.953953	81.567178	164.393254
34855		-0.006275	0.655278	0.022801	-0.755017	-16.923740	81.574286	164.419054
34856		-0.006254	0.655325	0.022719	-0.754979	-16.879540	81.583241	164.458209
34857		-0.006212	0.655345	0.022635	-0.754965	-16.816351	81.588740	164.518026
34858		-0.006168	0.655367	0.022538	-0.754949	-16.745598	81.594988	164.584385
34859		-0.006113	0.655406	0.022420	-0.754919	-16.661504	81.604230	164.663362
34860		-0.006065	0.655486	0.022269	-0.754855	-16.573103	81.619937	164.743455
34861		-0.006069	0.655535	0.022115	-0.754816	-16.499836	81.630081	164.803858
34862		-0.006099	0.655596	0.021982	-0.754767	-16.455115	81.640958	164.835316
34863		-0.006174	0.655666	0.021796	-0.754711	-16.403952	81.653251	164.865295
34864		-0.006241	0.655759	0.021653	-0.754634	-16.380438	81.668290	164.871656
34865		-0.006320	0.655869	0.021507	-0.754542	-16.366114	81.685529	164.867751
34866		-0.006369	0.655999	0.021393	-0.754432	-16.361216	81.705724	164.859406
34867		-0.006419	0.656102	0.021260	-0.754346	-16.337286	81.722333	164.868454
34868		-0.006404	0.656224	0.021166	-0.754242	-16.309141	81.742376	164.890149
34869		-0.006389	0.656357	0.021014	-0.754131	-16.250594	81.765156	164.937472
34870		-0.006291	0.656523	0.020981	-0.753988	-16.228998	81.792286	164.964369
34871		-0.006252	0.656678	0.020878	-0.753856	-16.192342	81.817807	164.995845
34872		-0.006213	0.656857	0.020795	-0.753703	-16.174906	81.846345	165.009712
34873		-0.006198	0.656988	0.020715	-0.753591	-16.157474	81.867457	165.021815
34874		-0.006217	0.657095	0.020631	-0.753500	-16.147777	81.884364	165.023159
34875		-0.006249	0.657173	0.020567	-0.753433	-16.148104	81.896436	165.015035
34876		-0.006296	0.657230	0.020481	-0.753385	-16.137655	81.905505	165.014650
34877		-0.006328	0.657271	0.020394	-0.753352	-16.113569	81.912525	165.029091
34878		-0.006373	0.657293	0.020336	-0.753334	-16.107991	81.915886	165.026230
34879		-0.006405	0.657313	0.020231	-0.753319	-16.067681	81.920218	165.055442
34880		-0.006425	0.657350	0.020159	-0.753288	-16.045641	81.926648	165.069937
34881		-0.006446	0.657380	0.020067	-0.753264	-16.009984	81.932429	165.096522
34882		-0.006423	0.657398	0.020033	-0.753249	-15.983307	81.936252	165.122254
34883		-0.006433	0.657386	0.019978	-0.753261	-15.951685	81.935352	165.148626
34884		-0.006397	0.657391	0.019900	-0.753260	-15.887133	81.938301	165.209704
34885		-0.006389	0.657379	0.019849	-0.753272	-15.849144	81.937673	165.244157
34886		-0.006392	0.657342	0.019757	-0.753306	-15.785529	81.933999	165.300115
34887		-0.006367	0.657307	0.019703	-0.753338	-15.730324	81.930473	165.352973
34888		-0.006337	0.657323	0.019636	-0.753326	-15.678965	81.934684	165.401333
34889		-0.006331	0.657378	0.019545	-0.753281	-15.636264	81.944682	165.437108
34890		-0.006304	0.657510	0.019481	-0.753168	-15.620947	81.965765	165.449481
34891		-0.006300	0.657640	0.019402	-0.753056	-15.608141	81.986518	165.456135
34892		-0.006285	0.657810	0.019380	-0.752908	-15.634800	82.012154	165.428865
34893		-0.006307	0.657962	0.019338	-0.752776	-15.664190	82.034856	165.394225
34894		-0.006331	0.658108	0.019278	-0.752650	-15.681634	82.056954	165.369998
34895		-0.006357	0.658219	0.019229	-0.752554	-15.697718	82.073710	165.347796
34896		-0.006383	0.658320	0.019196	-0.752466	-15.719830	82.088632	165.320879
34897		-0.006418	0.658400	0.019149	-0.752397	-15.733665	82.100626	165.300369
34898		-0.006431	0.658469	0.019157	-0.752336	-15.764985	82.110314	165.268696
34899		-0.006463	0.658516	0.019134	-0.752296	-15.781033	82.116953	165.248111
34900		-0.006478	0.658522	0.019113	-0.752291	-15.778307	82.117958	165.247867
34901		-0.006491	0.658505	0.019084	-0.752307	-15.762488	82.115713	165.260354
34902		-0.006469	0.658472	0.019066	-0.752336	-15.730066	82.111640	165.293126
34903		-0.006475	0.658422	0.019022	-0.752381	-15.691859	82.105053	165.327167
34904		-0.006506	0.658373	0.018978	-0.752424	-15.667487	82.098161	165.345497
34905		-0.006516	0.658298	0.018942	-0.752491	-15.629390	82.087537	165.379883
34906		-0.006549	0.658207	0.018895	-0.752571	-15.591275	82.074421	165.411469
34907		-0.006564	0.658108	0.018858	-0.752659	-15.548097	82.060223	165.450459
34908		-0.006572	0.657998	0.018875	-0.752754	-15.531736	82.043675	165.467536
34909		-0.006602	0.657875	0.018837	-0.752863	-15.489663	82.025566	165.504114
34910		-0.006640	0.657727	0.018830	-0.752992	-15.463418	82.003171	165.526701
34911		-0.006700	0.657572	0.018819	-0.753127	-15.444816	81.979488	165.539574
34912		-0.006710	0.657444	0.018874	-0.753237	-15.447095	81.959365	165.540935
34913		-0.006764	0.657332	0.018892	-0.753334	-15.455102	81.941492	165.530065
34914		-0.006813	0.657275	0.018910	-0.753382	-15.475152	81.931828	165.507550
34915		-0.006813	0.657229	0.018944	-0.753422	-15.482780	81.924349	165.502670
34916		-0.006802	0.657226	0.018994	-0.753424	-15.506146	81.923184	165.484182
34917		-0.006745	0.657265	0.019032	-0.753389	-15.510736	81.929341	165.487368
34918		-0.006638	0.657344	0.019081	-0.753320	-15.506229	81.942214	165.504503
34919		-0.006535	0.657404	0.019082	-0.753268	-15.470751	81.953094	165.548514
34920		-0.006482	0.657505	0.019044	-0.753182	-15.448573	81.969679	165.571832
34921		-0.006386	0.657610	0.019055	-0.753090	-15.434941	81.986957	165.594161
34922		-0.006305	0.657748	0.019081	-0.752970	-15.447109	82.008319	165.590647
34923		-0.006257	0.657917	0.019094	-0.752822	-15.477122	82.033897	165.565584
34924		-0.006196	0.658133	0.019112	-0.752634	-15.516962	82.066571	165.532181
34925		-0.006147	0.658360	0.019165	-0.752434	-15.588473	82.099919	165.468921
34926		-0.006092	0.658579	0.019212	-0.752242	-15.650791	82.132371	165.414872
34927		-0.006026	0.658806	0.019269	-0.752042	-15.716820	82.165970	165.358802
34928		-0.005891	0.659026	0.019379	-0.751847	-15.777193	82.199101	165.318212
34929		-0.005789	0.659215	0.019454	-0.751680	-15.824777	82.227557	165.285087
34930		-0.005656	0.659368	0.019542	-0.751545	-15.853286	82.251093	165.274465
34931		-0.005578	0.659496	0.019618	-0.751431	-15.896644	82.270091	165.243567
34932		-0.005505	0.659580	0.019686	-0.751356	-15.924422	82.282627	165.227240
34933		-0.005467	0.659584	0.019748	-0.751352	-15.943871	82.282745	165.216025
34934		-0.005476	0.659542	0.019818	-0.751386	-15.980335	82.275114	165.184458
34935		-0.005500	0.659439	0.019865	-0.751475	-15.991224	82.258509	165.175375
34936		-0.005504	0.659309	0.019942	-0.751587	-16.003036	82.237866	165.169540
34937		-0.005564	0.659133	0.019986	-0.751740	-16.009527	82.209890	165.161763
34938		-0.005636	0.658953	0.019997	-0.751897	-16.001694	82.181614	165.164699
34939		-0.005692	0.658771	0.020011	-0.752056	-15.986024	82.153406	165.176909
34940		-0.005740	0.658583	0.020035	-0.752220	-15.970962	82.124349	165.190051
34941		-0.005751	0.658416	0.020071	-0.752365	-15.950073	82.098934	165.213066
34942		-0.005758	0.658246	0.020105	-0.752512	-15.925200	82.073139	165.240130
34943		-0.005721	0.658102	0.020128	-0.752638	-15.877627	82.052327	165.292578
34944		-0.005682	0.657996	0.020154	-0.752730	-15.842515	82.037040	165.333000
34945		-0.005612	0.657914	0.020204	-0.752801	-15.812837	82.025460	165.372428
34946		-0.005520	0.657873	0.020297	-0.752835	-15.808995	82.019617	165.391262
34947		-0.005464	0.657848	0.020355	-0.752856	-15.807768	82.016066	165.401796
34948		-0.005453	0.657859	0.020381	-0.752846	-15.821487	82.017300	165.391078
34949		-0.005424	0.657875	0.020471	-0.752830	-15.865393	82.018516	165.356841
34950		-0.005428	0.657896	0.020514	-0.752810	-15.899508	82.020777	165.325819
34951		-0.005420	0.657963	0.020582	-0.752749	-15.956225	82.029431	165.275318
34952		-0.005425	0.658045	0.020610	-0.752677	-15.999377	82.040874	165.234079
34953		-0.005410	0.658083	0.020675	-0.752642	-16.041993	82.045509	165.197900
34954		-0.005404	0.658114	0.020716	-0.752614	-16.072626	82.049375	165.171090
34955		-0.005378	0.658142	0.020776	-0.752588	-16.103653	82.052772	165.147068
34956		-0.005333	0.658163	0.020812	-0.752569	-16.108200	82.056186	165.149065
34957		-0.005265	0.658182	0.020832	-0.752552	-16.090661	82.060007	165.173760
34958		-0.005235	0.658213	0.020804	-0.752526	-16.066901	82.065743	165.197683
34959		-0.005208	0.658261	0.020759	-0.752486	-16.038854	82.074196	165.224274
34960		-0.005217	0.658305	0.020691	-0.752449	-16.015055	82.081724	165.241853
34961		-0.005241	0.658337	0.020618	-0.752422	-15.992714	82.087445	165.256269
34962		-0.005285	0.658408	0.020535	-0.752362	-15.985314	82.098542	165.253350
34963		-0.005330	0.658486	0.020438	-0.752296	-15.973081	82.110917	165.254076
34964		-0.005427	0.658566	0.020319	-0.752229	-15.974814	82.122973	165.234689
34965		-0.005483	0.658647	0.020236	-0.752160	-15.976879	82.135323	165.221342
34966		-0.005526	0.658729	0.020164	-0.752090	-15.979747	82.147783	165.209188
34967		-0.005561	0.658793	0.020051	-0.752037	-15.947519	82.158602	165.229418
34968		-0.005573	0.658846	0.019943	-0.751993	-15.902938	82.168334	165.264202
34969		-0.005580	0.658879	0.019812	-0.751968	-15.835474	82.175499	165.320498
34970		-0.005578	0.658895	0.019700	-0.751956	-15.769986	82.180084	165.376994
34971		-0.005604	0.658883	0.019580	-0.751970	-15.705834	82.180087	165.429249
34972		-0.005643	0.658863	0.019408	-0.751992	-15.614877	82.179586	165.503067
34973		-0.005700	0.658850	0.019251	-0.752006	-15.544565	82.179568	165.556012
34974		-0.005807	0.658827	0.019025	-0.752032	-15.454722	82.178223	165.618833
34975		-0.005933	0.658810	0.018839	-0.752050	-15.402679	82.176779	165.645582
34976		-0.006060	0.658785	0.018654	-0.752075	-15.348854	82.174011	165.674027
34977		-0.006196	0.658761	0.018478	-0.752100	-15.305690	82.170968	165.691859
34978		-0.006338	0.658718	0.018286	-0.752141	-15.251410	82.165466	165.719015
34979		-0.006434	0.658639	0.018157	-0.752213	-15.200019	82.154292	165.752092
34980		-0.006478	0.658557	0.018081	-0.752286	-15.153631	82.142731	165.788711
34981		-0.006525	0.658487	0.018005	-0.752348	-15.112929	82.132940	165.819480
34982		-0.006585	0.658435	0.017922	-0.752395	-15.078528	82.125697	165.842286
34983		-0.006611	0.658380	0.017900	-0.752443	-15.063866	82.117494	165.852976
34984		-0.006595	0.658332	0.017906	-0.752486	-15.045747	82.110473	165.872932
34985		-0.006588	0.658260	0.017887	-0.752549	-15.009877	82.100415	165.907868
34986		-0.006594	0.658176	0.017842	-0.752623	-14.962378	82.088837	165.951200
34987		-0.006602	0.658091	0.017825	-0.752698	-14.933182	82.076460	165.978409
34988		-0.006638	0.657981	0.017796	-0.752795	-14.903533	82.059958	166.002753
34989		-0.006679	0.657888	0.017780	-0.752876	-14.890181	82.045799	166.011481
34990		-0.006764	0.657786	0.017783	-0.752964	-14.909376	82.029108	165.985707
34991		-0.006839	0.657677	0.017816	-0.753058	-14.938607	82.010933	165.952981
34992		-0.006909	0.657594	0.017865	-0.753129	-14.982327	81.996427	165.907606
34993		-0.006968	0.657535	0.017917	-0.753178	-15.029009	81.985654	165.860337
34994		-0.006966	0.657492	0.018016	-0.753214	-15.075473	81.977504	165.822094
34995		-0.006966	0.657450	0.018123	-0.753248	-15.128901	81.969236	165.777432
34996		-0.006914	0.657389	0.018237	-0.753299	-15.153996	81.959205	165.765812
34997		-0.006831	0.657310	0.018371	-0.753366	-15.170009	81.946645	165.767328
34998		-0.006668	0.657250	0.018563	-0.753414	-15.184539	81.937564	165.781696
34999		-0.006556	0.657195	0.018668	-0.753461	-15.174782	81.929768	165.809100
35000		-0.006451	0.657142	0.018768	-0.753506	-15.166033	81.922150	165.834448
35001		-0.006348	0.657114	0.018854	-0.753528	-15.156912	81.918518	165.859003
35002		-0.006291	0.657114	0.018922	-0.753527	-15.167970	81.918386	165.858090
35003		-0.006262	0.657132	0.019002	-0.753510	-15.206140	81.920104	165.828668
35004		-0.006215	0.657163	0.019096	-0.753481	-15.247090	81.923884	165.799276
35005		-0.006220	0.657191	0.019182	-0.753455	-15.308688	81.926182	165.744189
35006		-0.006168	0.657225	0.019269	-0.753423	-15.343574	81.930712	165.720558
35007		-0.006099	0.657241	0.019372	-0.753407	-15.373946	81.932423	165.704178
35008		-0.006005	0.657223	0.019466	-0.753421	-15.376873	81.929989	165.716563
35009		-0.005870	0.657147	0.019562	-0.753486	-15.344259	81.919698	165.767958
35010		-0.005742	0.657050	0.019658	-0.753569	-15.308949	81.906212	165.821550
35011		-0.005594	0.656955	0.019759	-0.753650	-15.267813	81.893399	165.882830
35012		-0.005478	0.656889	0.019859	-0.753705	-15.249742	81.884176	165.918476
35013		-0.005400	0.656840	0.019958	-0.753746	-15.255495	81.876640	165.927066
35014		-0.005340	0.656801	0.020079	-0.753777	-15.286759	81.869899	165.910552
35015		-0.005312	0.656759	0.020190	-0.753811	-15.327226	81.862223	165.881403
35016		-0.005311	0.656735	0.020300	-0.753829	-15.385801	81.856689	165.831808
35017		-0.005276	0.656706	0.020442	-0.753851	-15.444185	81.850385	165.787878
35018		-0.005210	0.656687	0.020611	-0.753863	-15.505607	81.845910	165.745485
35019		-0.005095	0.656707	0.020795	-0.753842	-15.562038	81.847663	165.713329
35020		-0.004989	0.656740	0.020974	-0.753809	-15.623724	81.851321	165.674758
35021		-0.004831	0.656805	0.021179	-0.753747	-15.683205	81.860268	165.644878
35022		-0.004639	0.656930	0.021383	-0.753634	-15.740867	81.878700	165.619310
35023		-0.004452	0.657065	0.021574	-0.753512	-15.796922	81.898751	165.594029
35024		-0.004283	0.657219	0.021761	-0.753374	-15.865372	81.921253	165.554409
35025		-0.004137	0.657373	0.021935	-0.753235	-15.938000	81.943648	165.507706
35026		-0.004058	0.657516	0.022042	-0.753107	-16.002306	81.964234	165.458548
35027		-0.003962	0.657619	0.022188	-0.753013	-16.069903	81.978683	165.410529
35028		-0.003930	0.657742	0.022297	-0.752903	-16.154265	81.995241	165.337615
35029		-0.003846	0.657852	0.022434	-0.752803	-16.225893	82.010587	165.283928
35030		-0.003780	0.657979	0.022554	-0.752689	-16.300683	82.028309	165.224290
35031		-0.003681	0.658122	0.022683	-0.752561	-16.369894	82.048800	165.173540
35032		-0.003538	0.658285	0.022836	-0.752414	-16.436444	82.072837	165.131020
35033		-0.003411	0.658454	0.022927	-0.752264	-16.475338	82.098616	165.109772
35034		-0.003250	0.658620	0.023023	-0.752116	-16.498826	82.124494	165.107240
35035		-0.003130	0.658760	0.023078	-0.751993	-16.510646	82.146574	165.109535
35036		-0.003005	0.658882	0.023076	-0.751886	-16.480170	82.167259	165.149949
35037		-0.002922	0.658960	0.023046	-0.751820	-16.440997	82.180939	165.193443
35038		-0.002831	0.659042	0.023077	-0.751747	-16.435816	82.194413	165.208579
35039		-0.002802	0.659103	0.023058	-0.751694	-16.427021	82.204312	165.218191
35040		-0.002783	0.659159	0.023067	-0.751645	-16.439675	82.212811	165.207781
35041		-0.002781	0.659217	0.023056	-0.751594	-16.449070	82.221606	165.197582
35042		-0.002766	0.659297	0.023063	-0.751523	-16.469846	82.233589	165.178596
35043		-0.002745	0.659394	0.023040	-0.751439	-16.473430	82.248743	165.174816
35044		-0.002702	0.659538	0.023018	-0.751314	-16.480647	82.271102	165.169313
35045		-0.002660	0.659698	0.022951	-0.751176	-16.464985	82.296815	165.182952
35046		-0.002645	0.659878	0.022860	-0.751020	-16.454652	82.325423	165.187071
35047		-0.002620	0.660058	0.022807	-0.750863	-16.462752	82.353518	165.176687
35048		-0.002550	0.660259	0.022801	-0.750687	-16.483270	82.384609	165.161318
35049		-0.002524	0.660463	0.022778	-0.750508	-16.517380	82.415672	165.127440
35050		-0.002477	0.660693	0.022778	-0.750306	-16.563122	82.450466	165.085487
35051		-0.002442	0.660904	0.022722	-0.750123	-16.574822	82.483302	165.072068
35052		-0.002378	0.661109	0.022704	-0.749943	-16.592027	82.515201	165.058566
35053		-0.002349	0.661277	0.022619	-0.749797	-16.574681	82.542300	165.071330
35054		-0.002345	0.661369	0.022563	-0.749717	-16.565559	82.556988	165.076218
35055		-0.002360	0.661390	0.022525	-0.749700	-16.555751	82.560476	165.081659
35056		-0.002398	0.661409	0.022475	-0.749684	-16.551201	82.563479	165.079124
35057		-0.002427	0.661398	0.022444	-0.749695	-16.544403	82.561805	165.081036
35058		-0.002437	0.661374	0.022409	-0.749717	-16.519327	82.558747	165.102435
35059		-0.002451	0.661345	0.022354	-0.749745	-16.482325	82.555171	165.133882
35060		-0.002455	0.661318	0.022270	-0.749771	-16.421773	82.552786	165.187257
35061		-0.002449	0.661273	0.022175	-0.749813	-16.343045	82.548178	165.258786
35062		-0.002435	0.661211	0.022140	-0.749869	-16.293098	82.540072	165.307061
35063		-0.002472	0.661162	0.022059	-0.749915	-16.246136	82.533595	165.344421
35064		-0.002481	0.661116	0.022027	-0.749956	-16.215778	82.527252	165.371404
35065		-0.002510	0.661088	0.021991	-0.749982	-16.200162	82.523215	165.381747
35066		-0.002518	0.661069	0.021980	-0.749999	-16.191929	82.520478	165.388516
35067		-0.002522	0.661037	0.021974	-0.750027	-16.180152	82.515704	165.399474
35068		-0.002528	0.661034	0.021949	-0.750031	-16.166304	82.515648	165.410785
35069		-0.002506	0.661028	0.021932	-0.750036	-16.141872	82.515588	165.435621
35070		-0.002459	0.661018	0.021901	-0.750046	-16.091979	82.515723	165.486749
35071		-0.002434	0.661012	0.021856	-0.750053	-16.047365	82.516224	165.529732
35072		-0.002444	0.660991	0.021824	-0.750072	-16.026030	82.513558	165.547700
35073		-0.002474	0.660966	0.021778	-0.750096	-16.004953	82.509988	165.562579
35074		-0.002544	0.660941	0.021707	-0.750120	-15.990693	82.506243	165.565460
35075		-0.002589	0.660902	0.021663	-0.750155	-15.976247	82.500349	165.572654
35076		-0.002660	0.660868	0.021588	-0.750187	-15.956559	82.495268	165.580486
35077		-0.002682	0.660822	0.021551	-0.750228	-15.931876	82.488793	165.600379
35078		-0.002713	0.660799	0.021526	-0.750249	-15.925662	82.485192	165.602121
35079		-0.002740	0.660758	0.021497	-0.750286	-15.909983	82.479100	165.613190
35080		-0.002762	0.660723	0.021474	-0.750317	-15.896658	82.473958	165.622830
35081		-0.002767	0.660692	0.021457	-0.750345	-15.879565	82.469649	165.638174
35082		-0.002740	0.660673	0.021475	-0.750362	-15.869617	82.466986	165.651721
35083		-0.002747	0.660672	0.021457	-0.750363	-15.861617	82.467090	165.657710
35084		-0.002784	0.660678	0.021442	-0.750358	-15.874290	82.467451	165.640831
35085		-0.002771	0.660651	0.021441	-0.750382	-15.858845	82.463731	165.657304
35086		-0.002736	0.660624	0.021460	-0.750405	-15.843193	82.460127	165.677339
35087		-0.002718	0.660576	0.021447	-0.750448	-15.810115	82.453654	165.710871
35088		-0.002714	0.660537	0.021420	-0.750483	-15.779554	82.448563	165.739478
35089		-0.002705	0.660490	0.021369	-0.750526	-15.727428	82.442772	165.788260
35090		-0.002723	0.660455	0.021305	-0.750558	-15.686261	82.438482	165.822737
35091		-0.002726	0.660421	0.021248	-0.750590	-15.640916	82.434395	165.863239
35092		-0.002749	0.660443	0.021204	-0.750572	-15.632132	82.438043	165.866571
35093		-0.002765	0.660472	0.021157	-0.750548	-15.619477	82.442777	165.874081
35094		-0.002758	0.660509	0.021141	-0.750515	-15.616623	82.448769	165.876185
35095		-0.002765	0.660568	0.021091	-0.750465	-15.606427	82.458257	165.881809
35096		-0.002749	0.660628	0.021073	-0.750412	-15.603649	82.467782	165.884409
35097		-0.002762	0.660693	0.021021	-0.750356	-15.596770	82.478126	165.885969
35098		-0.002783	0.660768	0.020962	-0.750292	-15.593009	82.489756	165.883163
35099		-0.002805	0.660832	0.020943	-0.750236	-15.612326	82.499149	165.860606
35100		-0.002797	0.660911	0.020943	-0.750167	-15.630993	82.510986	165.842501
35101		-0.002803	0.660979	0.020907	-0.750108	-15.632254	82.521583	165.837863
35102		-0.002804	0.661056	0.020899	-0.750040	-15.650106	82.533092	165.819248
35103		-0.002809	0.661128	0.020876	-0.749977	-15.659987	82.544008	165.807053
35104		-0.002832	0.661177	0.020853	-0.749935	-15.672760	82.551221	165.790544
35105		-0.002845	0.661209	0.020851	-0.749907	-15.688460	82.555655	165.773680
35106		-0.002846	0.661265	0.020859	-0.749857	-15.711750	82.563737	165.750917
35107		-0.002871	0.661303	0.020850	-0.749823	-15.731360	82.569093	165.728515
35108		-0.002831	0.661352	0.020888	-0.749780	-15.748410	82.576363	165.717845
35109		-0.002868	0.661397	0.020871	-0.749740	-15.771958	82.582639	165.689877
35110		-0.002857	0.661448	0.020872	-0.749695	-15.781433	82.590382	165.681402
35111		-0.002880	0.661474	0.020869	-0.749672	-15.800882	82.593685	165.659826
35112		-0.002899	0.661508	0.020868	-0.749642	-15.820855	82.598326	165.638203
35113		-0.002924	0.661541	0.020856	-0.749614	-15.837673	82.602888	165.618463
35114		-0.002985	0.661570	0.020838	-0.749588	-15.869825	82.606277	165.579858
35115		-0.003021	0.661597	0.020826	-0.749565	-15.890273	82.609710	165.555519
35116		-0.003039	0.661628	0.020852	-0.749536	-15.927196	82.613480	165.519245
35117		-0.003109	0.661662	0.020823	-0.749506	-15.959095	82.617621	165.479229
35118		-0.003150	0.661713	0.020829	-0.749461	-16.001803	82.624056	165.433703
35119		-0.003197	0.661761	0.020825	-0.749419	-16.041033	82.630285	165.390281
35120		-0.003245	0.661816	0.020850	-0.749369	-16.101372	82.636865	165.328098
35121		-0.003269	0.661890	0.020874	-0.749304	-16.154113	82.646748	165.275356
35122		-0.003263	0.661963	0.020921	-0.749238	-16.205061	82.656731	165.228739
35123		-0.003265	0.662038	0.020944	-0.749171	-16.244878	82.667293	165.190593
35124		-0.003274	0.662085	0.020972	-0.749128	-16.283627	82.673525	165.153405
35125		-0.003273	0.662134	0.021008	-0.749084	-16.322723	82.679986	165.117301
35126		-0.003274	0.662166	0.021100	-0.749053	-16.394003	82.682937	165.053412
35127		-0.003300	0.662178	0.021133	-0.749041	-16.434108	82.683574	165.013879
35128		-0.003308	0.662197	0.021201	-0.749023	-16.489620	82.684746	164.963249
35129		-0.003348	0.662194	0.021247	-0.749024	-16.541974	82.682562	164.911341
35130		-0.003369	0.662180	0.021313	-0.749034	-16.592935	82.678698	164.864067
35131		-0.003393	0.662174	0.021351	-0.749038	-16.629392	82.676488	164.828713
35132		-0.003429	0.662178	0.021390	-0.749034	-16.676388	82.675509	164.781962
35133		-0.003445	0.662150	0.021448	-0.749056	-16.714308	82.669917	164.747481
35134		-0.003477	0.662144	0.021466	-0.749061	-16.742270	82.667951	164.718315
35135		-0.003485	0.662143	0.021509	-0.749061	-16.774698	82.666801	164.688837
35136		-0.003515	0.662131	0.021559	-0.749070	-16.820786	82.663355	164.644391
35137		-0.003543	0.662127	0.021615	-0.749071	-16.871962	82.661004	164.595421
35138		-0.003569	0.662125	0.021665	-0.749072	-16.918645	82.659132	164.550639
35139		-0.003603	0.662125	0.021728	-0.749069	-16.978987	82.657129	164.492682
35140		-0.003602	0.662141	0.021789	-0.749054	-17.023762	82.658206	164.452946
35141		-0.003608	0.662164	0.021862	-0.749031	-17.083063	82.659959	164.399117
35142		-0.003606	0.662186	0.021931	-0.749010	-17.133821	82.661800	164.354119
35143		-0.003569	0.662199	0.021975	-0.748997	-17.146247	82.663621	164.348251
35144		-0.003562	0.662215	0.021998	-0.748983	-17.162509	82.665631	164.334502
35145		-0.003526	0.662224	0.022030	-0.748973	-17.166171	82.667163	164.336335
35146		-0.003505	0.662216	0.022059	-0.748980	-17.170427	82.665852	164.336087
35147		-0.003495	0.662210	0.022105	-0.748984	-17.192606	82.664193	164.318440
35148		-0.003456	0.662203	0.022152	-0.748989	-17.198944	82.663030	164.319082
35149		-0.003443	0.662227	0.022191	-0.748966	-17.225213	82.666176	164.297040
35150		-0.003452	0.662253	0.022187	-0.748943	-17.236346	82.669887	164.284929
35151		-0.003440	0.662277	0.022203	-0.748922	-17.248251	82.673232	164.275262
35152		-0.003451	0.662301	0.022199	-0.748901	-17.259656	82.676641	164.262636
35153		-0.003453	0.662324	0.022183	-0.748881	-17.258118	82.680316	164.262661
35154		-0.003451	0.662348	0.022212	-0.748859	-17.284167	82.683239	164.239166
35155		-0.003454	0.662362	0.022243	-0.748846	-17.311237	82.684527	164.214340
35156		-0.003453	0.662353	0.022328	-0.748851	-17.362704	82.681518	164.169894
35157		-0.003443	0.662330	0.022430	-0.748869	-17.415851	82.676191	164.125828
35158		-0.003393	0.662321	0.022529	-0.748874	-17.449654	82.674031	164.104170
35159		-0.003353	0.662328	0.022605	-0.748865	-17.479003	82.674370	164.084163
35160		-0.003303	0.662277	0.022714	-0.748907	-17.503719	82.665753	164.072391
35161		-0.003241	0.662146	0.022832	-0.749020	-17.501147	82.645434	164.089622
35162		-0.003209	0.662005	0.022919	-0.749142	-17.491736	82.623669	164.108684
35163		-0.003150	0.661899	0.023024	-0.749232	-17.490822	82.607439	164.122936
35164		-0.003107	0.661843	0.023113	-0.749280	-17.504994	82.598318	164.119454
35165		-0.003025	0.661820	0.023141	-0.749300	-17.469425	82.596153	164.163994
35166		-0.002925	0.661835	0.023147	-0.749287	-17.421782	82.600556	164.220278
35167		-0.002838	0.661911	0.023090	-0.749221	-17.362095	82.614966	164.282331
35168		-0.002730	0.662042	0.023028	-0.749108	-17.304367	82.637817	164.343749
35169		-0.002648	0.662229	0.022922	-0.748946	-17.252445	82.669291	164.393772
35170		-0.002567	0.662450	0.022812	-0.748754	-17.208876	82.705840	164.434952
35171		-0.002477	0.662680	0.022698	-0.748554	-17.160385	82.744087	164.481456
35172		-0.002452	0.662974	0.022555	-0.748298	-17.151032	82.790781	164.481218
35173		-0.002417	0.663176	0.022425	-0.748124	-17.113494	82.823822	164.510989
35174		-0.002336	0.663299	0.022329	-0.748018	-17.044027	82.845742	164.579180
35175		-0.002273	0.663419	0.022226	-0.747914	-16.979223	82.866915	164.640791
35176		-0.002213	0.663517	0.022114	-0.747831	-16.902373	82.884907	164.713354
35177		-0.002143	0.663540	0.022024	-0.747814	-16.808573	82.891629	164.805535
35178		-0.002089	0.663532	0.021945	-0.747823	-16.720913	82.893312	164.891129
35179		-0.002067	0.663516	0.021864	-0.747840	-16.647048	82.893003	164.960205
35180		-0.002067	0.663494	0.021787	-0.747861	-16.588566	82.891273	165.012479
35181		-0.002075	0.663466	0.021666	-0.747890	-16.501830	82.889409	165.088694
35182		-0.002111	0.663478	0.021537	-0.747883	-16.440024	82.892912	165.137050
35183		-0.002167	0.663476	0.021394	-0.747888	-16.375760	82.894211	165.185201
35184		-0.002237	0.663465	0.021258	-0.747902	-16.321916	82.893715	165.222374
35185		-0.002295	0.663424	0.021131	-0.747942	-16.256701	82.888927	165.272575
35186		-0.002343	0.663372	0.021036	-0.747990	-16.204153	82.882083	165.313502
35187		-0.002383	0.663341	0.020927	-0.748021	-16.143924	82.878650	165.361628
35188		-0.002444	0.663284	0.020798	-0.748075	-16.073802	82.871439	165.416370
35189		-0.002421	0.663219	0.020752	-0.748134	-16.008023	82.863223	165.480177
35190		-0.002420	0.663171	0.020708	-0.748177	-15.963133	82.857027	165.521640
35191		-0.002385	0.663103	0.020682	-0.748239	-15.902473	82.848186	165.583017
35192		-0.002335	0.663028	0.020659	-0.748306	-15.834141	82.838585	165.653527
35193		-0.002268	0.662958	0.020618	-0.748369	-15.744544	82.830426	165.745290
35194		-0.002221	0.662921	0.020534	-0.748404	-15.649280	82.827595	165.837503
35195		-0.002152	0.662918	0.020486	-0.748409	-15.575679	82.829421	165.912838
35196		-0.002079	0.662921	0.020414	-0.748409	-15.485095	82.832615	166.003503
35197		-0.002018	0.662981	0.020371	-0.748356	-15.439544	82.843637	166.050451
35198		-0.001920	0.663072	0.020339	-0.748277	-15.387872	82.859633	166.107545
35199		-0.001870	0.663200	0.020279	-0.748165	-15.358422	82.880810	166.136202
35200		-0.001822	0.663351	0.020214	-0.748034	-15.332431	82.905223	166.160697
35201		-0.001794	0.663515	0.020118	-0.747890	-15.301684	82.931956	166.185894
35202		-0.001783	0.663688	0.020008	-0.747740	-15.273960	82.959818	166.205643
35203		-0.001738	0.663852	0.019916	-0.747596	-15.235340	82.986807	166.240427
35204		-0.001712	0.663997	0.019820	-0.747471	-15.198908	83.010520	166.271142
35205		-0.001646	0.664142	0.019770	-0.747343	-15.170105	83.034312	166.301262
35206		-0.001560	0.664288	0.019717	-0.747215	-15.127183	83.058690	166.346828
35207		-0.001461	0.664469	0.019676	-0.747056	-15.095400	83.088204	166.383234
35208		-0.001340	0.664647	0.019653	-0.746898	-15.061005	83.117600	166.425601
35209		-0.001236	0.664812	0.019601	-0.746752	-15.012596	83.145127	166.478186
35210		-0.001139	0.664964	0.019571	-0.746618	-14.979992	83.170135	166.516216
35211		-0.001042	0.665103	0.019556	-0.746494	-14.953284	83.193095	166.549569
35212		-0.000965	0.665216	0.019562	-0.746394	-14.945647	83.211310	166.563991
35213		-0.000877	0.665303	0.019604	-0.746315	-14.947628	83.225218	166.572490
35214		-0.000814	0.665360	0.019663	-0.746263	-14.968445	83.233948	166.561579
35215		-0.000743	0.665404	0.019737	-0.746222	-14.990742	83.240596	166.550997
35216		-0.000678	0.665470	0.019788	-0.746162	-15.007294	83.250698	166.543930
35217		-0.000614	0.665522	0.019848	-0.746114	-15.027163	83.258673	166.534101
35218		-0.000509	0.665563	0.019915	-0.746076	-15.021382	83.265630	166.553800
35219		-0.000438	0.665581	0.019969	-0.746058	-15.021606	83.268785	166.563696
35220		-0.000359	0.665606	0.020043	-0.746034	-15.033192	83.272759	166.564588
35221		-0.000314	0.665646	0.020073	-0.745998	-15.038900	83.279032	166.564952
35222		-0.000289	0.665717	0.020093	-0.745933	-15.060437	83.289839	166.547022
35223		-0.000228	0.665774	0.020132	-0.745882	-15.067937	83.298742	166.547707
35224		-0.000150	0.665830	0.020194	-0.745830	-15.081742	83.307546	166.545244
35225		-0.000080	0.665913	0.020219	-0.745755	-15.082276	83.320871	166.552413
35226		-0.000019	0.666060	0.020227	-0.745624	-15.096748	83.343881	166.543505
35227		0.000062	0.666240	0.020243	-0.745463	-15.116012	83.371983	166.532085
35228		0.000198	0.666409	0.020280	-0.745310	-15.110943	83.399325	166.551193
35229		0.000310	0.666601	0.020275	-0.745139	-15.098507	83.430124	166.572259
35230		0.000459	0.666782	0.020290	-0.744976	-15.073344	83.459955	166.610692
35231		0.000602	0.666946	0.020313	-0.744829	-15.050955	83.486768	166.646504
35232		0.000777	0.667074	0.020395	-0.744712	-15.039525	83.507908	166.678823
35233		0.000899	0.667165	0.020446	-0.744628	-15.028393	83.523109	166.703993
35234		0.000995	0.667258	0.020515	-0.744544	-15.047861	83.537565	166.697885
35235		0.001094	0.667337	0.020626	-0.744469	-15.091339	83.549399	166.671448
35236		0.001214	0.667394	0.020777	-0.744414	-15.143974	83.557586	166.640768
35237		0.001311	0.667423	0.020899	-0.744384	-15.180986	83.561760	166.621633
35238		0.001372	0.667405	0.021032	-0.744396	-15.233962	83.557934	166.584359
35239		0.001446	0.667347	0.021145	-0.744445	-15.249568	83.548731	166.583931
35240		0.001520	0.667246	0.021289	-0.744531	-15.274366	83.532640	166.576823
35241		0.001584	0.667106	0.021427	-0.744653	-15.286945	83.510569	166.580607
35242		0.001646	0.666936	0.021555	-0.744801	-15.283770	83.484264	166.599326
35243		0.001724	0.666750	0.021687	-0.744964	-15.268844	83.455728	166.631309
35244		0.001791	0.666549	0.021822	-0.745140	-15.257187	83.424729	166.659419
35245		0.001857	0.666353	0.021941	-0.745311	-15.237248	83.394748	166.694386
35246		0.001918	0.666165	0.022003	-0.745478	-15.181293	83.366834	166.760384
35247		0.001974	0.665983	0.022077	-0.745638	-15.140611	83.339568	166.811640
35248		0.002070	0.665819	0.022194	-0.745780	-15.111537	83.315093	166.857956
35249		0.002124	0.665676	0.022281	-0.745905	-15.093880	83.293362	166.887122
