// General information: 
//  MT Manager version: 2022.2.0 
//  XDA version: 2022.2.0 build 7381 rev 124627 built on 2023-07-19
// Device information: 
//  DeviceId: 10B4215D
//  ProductCode: MTW2-3A7G6
//  Firmware Version: 4.14.0
//  Hardware Version: 3.0.0
// Device settings: 
//  Filter Profile: human(46.1)
//  Option Flags: Orientation Smoother Disabled, Position/Velocity Smoother Disabled, Continuous Zero Rotation Update Disabled, AHS Disabled, ICC Disabled
// Coordinate system: ENU
PacketCounter	SampleTimeFine	Quat_q0	Quat_q1	Quat_q2	Quat_q3	Roll	Pitch	Yaw
34038		0.629869	-0.595564	-0.343192	-0.361647	-83.742609	-59.666377	-5.316537
34039		0.629933	-0.595490	-0.343296	-0.361557	-83.738506	-59.668145	-5.300857
34040		0.630012	-0.595419	-0.343370	-0.361466	-83.731045	-59.666746	-5.289619
34041		0.630072	-0.595379	-0.343426	-0.361375	-83.729517	-59.663754	-5.276540
34042		0.630125	-0.595365	-0.343464	-0.361270	-83.732737	-59.658031	-5.260780
34043		0.630180	-0.595353	-0.343508	-0.361152	-83.737680	-59.651634	-5.242203
34044		0.630241	-0.595350	-0.343540	-0.361018	-83.743649	-59.642719	-5.222544
34045		0.630300	-0.595344	-0.343585	-0.360883	-83.750464	-59.635008	-5.201167
34046		0.630380	-0.595346	-0.343606	-0.360721	-83.756532	-59.622413	-5.179634
34047		0.630437	-0.595337	-0.343664	-0.360580	-83.764433	-59.615504	-5.155937
34048		0.630506	-0.595332	-0.343693	-0.360441	-83.769337	-59.605776	-5.136632
34049		0.630566	-0.595320	-0.343732	-0.360319	-83.773531	-59.598575	-5.118673
34050		0.630636	-0.595297	-0.343758	-0.360209	-83.772792	-59.591013	-5.105711
34051		0.630722	-0.595243	-0.343797	-0.360110	-83.765309	-59.585600	-5.096623
34052		0.630828	-0.595156	-0.343877	-0.359993	-83.754854	-59.582279	-5.083987
34053		0.630939	-0.595070	-0.343930	-0.359889	-83.740874	-59.577629	-5.076971
34054		0.631016	-0.595006	-0.343975	-0.359816	-83.731019	-59.575078	-5.071369
34055		0.631084	-0.594960	-0.344030	-0.359720	-83.727851	-59.571553	-5.058844
34056		0.631147	-0.594933	-0.344069	-0.359619	-83.727566	-59.566067	-5.045414
34057		0.631173	-0.594939	-0.344105	-0.359528	-83.735583	-59.561540	-5.028661
34058		0.631172	-0.594966	-0.344119	-0.359471	-83.746014	-59.558034	-5.015688
34059		0.631161	-0.594981	-0.344164	-0.359422	-83.757103	-59.558292	-5.000601
34060		0.631144	-0.595004	-0.344189	-0.359390	-83.767219	-59.558079	-4.989476
34061		0.631126	-0.594999	-0.344266	-0.359355	-83.777168	-59.562573	-4.973577
34062		0.631119	-0.594980	-0.344349	-0.359322	-83.783863	-59.567703	-4.959308
34063		0.631103	-0.594967	-0.344416	-0.359306	-83.789946	-59.572969	-4.948489
34064		0.631081	-0.594981	-0.344470	-0.359270	-83.801795	-59.575193	-4.933394
34065		0.631030	-0.595039	-0.344487	-0.359247	-83.820204	-59.575206	-4.919160
34066		0.630982	-0.595130	-0.344496	-0.359171	-83.847320	-59.570042	-4.895184
34067		0.630903	-0.595274	-0.344467	-0.359101	-83.883062	-59.561902	-4.870268
34068		0.630817	-0.595425	-0.344443	-0.359025	-83.921663	-59.553768	-4.842654
34069		0.630752	-0.595559	-0.344431	-0.358927	-83.957836	-59.544819	-4.813146
34070		0.630684	-0.595690	-0.344416	-0.358844	-83.992365	-59.536802	-4.786383
34071		0.630628	-0.595790	-0.344449	-0.358745	-84.025280	-59.531802	-4.754831
34072		0.630624	-0.595802	-0.344534	-0.358650	-84.041865	-59.531932	-4.728516
34073		0.630649	-0.595747	-0.344661	-0.358575	-84.046036	-59.537436	-4.707637
34074		0.630751	-0.595600	-0.344819	-0.358487	-84.029926	-59.544146	-4.694339
34075		0.630888	-0.595408	-0.344990	-0.358400	-84.003267	-59.551942	-4.686235
34076		0.631048	-0.595197	-0.345154	-0.358312	-83.970637	-59.558851	-4.681903
34077		0.631192	-0.595041	-0.345231	-0.358244	-83.940239	-59.559212	-4.685749
34078		0.631303	-0.594969	-0.345189	-0.358208	-83.915785	-59.551244	-4.699721
34079		0.631353	-0.594995	-0.345068	-0.358194	-83.906071	-59.538134	-4.714371
34080		0.631386	-0.595066	-0.344899	-0.358179	-83.902117	-59.520365	-4.729615
34081		0.631412	-0.595161	-0.344696	-0.358172	-83.899595	-59.500113	-4.747790
34082		0.631468	-0.595237	-0.344503	-0.358133	-83.893973	-59.477875	-4.763770
34083		0.631573	-0.595256	-0.344354	-0.358060	-83.879629	-59.456525	-4.777420
34084		0.631720	-0.595232	-0.344222	-0.357965	-83.856731	-59.434567	-4.792285
34085		0.631843	-0.595211	-0.344116	-0.357886	-83.837590	-59.416645	-4.804364
34086		0.631943	-0.595200	-0.343973	-0.357865	-83.815366	-59.400384	-4.827213
34087		0.632014	-0.595225	-0.343841	-0.357826	-83.804589	-59.383813	-4.840688
34088		0.632054	-0.595294	-0.343692	-0.357782	-83.803500	-59.365511	-4.849703
34089		0.632076	-0.595388	-0.343523	-0.357750	-83.805853	-59.346337	-4.859722
34090		0.632120	-0.595504	-0.343354	-0.357640	-83.815897	-59.320521	-4.857415
34091		0.632153	-0.595651	-0.343164	-0.357521	-83.830927	-59.291861	-4.853234
34092		0.632194	-0.595800	-0.342984	-0.357372	-83.848702	-59.261590	-4.843592
34093		0.632255	-0.595949	-0.342840	-0.357155	-83.872399	-59.228730	-4.820799
34094		0.632328	-0.596095	-0.342697	-0.356918	-83.895684	-59.194169	-4.796123
34095		0.632398	-0.596212	-0.342599	-0.356693	-83.917330	-59.165007	-4.769663
34096		0.632477	-0.596311	-0.342502	-0.356481	-83.933685	-59.136972	-4.747477
34097		0.632544	-0.596377	-0.342461	-0.356291	-83.948900	-59.116267	-4.723295
34098		0.632630	-0.596399	-0.342451	-0.356112	-83.956102	-59.099262	-4.702184
34099		0.632747	-0.596354	-0.342493	-0.355938	-83.952650	-59.087510	-4.683140
34100		0.632840	-0.596317	-0.342533	-0.355797	-83.950455	-59.078509	-4.666809
34101		0.632939	-0.596272	-0.342597	-0.355634	-83.949823	-59.069950	-4.645414
34102		0.633000	-0.596265	-0.342625	-0.355510	-83.953787	-59.061488	-4.628277
34103		0.633053	-0.596277	-0.342666	-0.355354	-83.965086	-59.051635	-4.602859
34104		0.633083	-0.596332	-0.342673	-0.355204	-83.982889	-59.039197	-4.577195
34105		0.633095	-0.596430	-0.342667	-0.355023	-84.010973	-59.023015	-4.543624
34106		0.633093	-0.596566	-0.342607	-0.354855	-84.041792	-59.002894	-4.514590
34107		0.633083	-0.596741	-0.342541	-0.354644	-84.082310	-58.978503	-4.476320
34108		0.633043	-0.596958	-0.342414	-0.354473	-84.125442	-58.952103	-4.445804
34109		0.632958	-0.597199	-0.342295	-0.354333	-84.175506	-58.929297	-4.413821
34110		0.632869	-0.597442	-0.342136	-0.354236	-84.219738	-58.906433	-4.392930
34111		0.632799	-0.597611	-0.342031	-0.354176	-84.251299	-58.891813	-4.378212
34112		0.632730	-0.597753	-0.341917	-0.354170	-84.273522	-58.880967	-4.374899
34113		0.632669	-0.597852	-0.341852	-0.354175	-84.290971	-58.875614	-4.371135
34114		0.632619	-0.597925	-0.341784	-0.354207	-84.300367	-58.872206	-4.374948
34115		0.632568	-0.598002	-0.341715	-0.354235	-84.311029	-58.868444	-4.377714
34116		0.632493	-0.598106	-0.341621	-0.354283	-84.325278	-58.864158	-4.382603
34117		0.632399	-0.598227	-0.341512	-0.354352	-84.341559	-58.860411	-4.389698
34118		0.632286	-0.598354	-0.341437	-0.354412	-84.364074	-58.859166	-4.389424
34119		0.632198	-0.598448	-0.341398	-0.354447	-84.383283	-58.859119	-4.385430
34120		0.632101	-0.598550	-0.341363	-0.354483	-84.405057	-58.859573	-4.379769
34121		0.632051	-0.598592	-0.341376	-0.354488	-84.417939	-58.861629	-4.371859
34122		0.632032	-0.598617	-0.341373	-0.354482	-84.424120	-58.861030	-4.368091
34123		0.632019	-0.598620	-0.341363	-0.354510	-84.423100	-58.862560	-4.372280
34124		0.632015	-0.598609	-0.341335	-0.354563	-84.415756	-58.864506	-4.384098
34125		0.631969	-0.598625	-0.341288	-0.354663	-84.412152	-58.868971	-4.400145
34126		0.631888	-0.598683	-0.341173	-0.354820	-84.409604	-58.872120	-4.427128
34127		0.631768	-0.598742	-0.341077	-0.355027	-84.409055	-58.881654	-4.456337
34128		0.631640	-0.598811	-0.340941	-0.355269	-84.405392	-58.890515	-4.494272
34129		0.631526	-0.598869	-0.340823	-0.355485	-84.401771	-58.898729	-4.528060
34130		0.631410	-0.598926	-0.340709	-0.355706	-84.398052	-58.907723	-4.561880
34131		0.631314	-0.598949	-0.340640	-0.355902	-84.392156	-58.918837	-4.590764
34132		0.631232	-0.598981	-0.340578	-0.356054	-84.390015	-58.926585	-4.612398
34133		0.631158	-0.598989	-0.340571	-0.356178	-84.389219	-58.937148	-4.625923
34134		0.631096	-0.599015	-0.340561	-0.356254	-84.393699	-58.943157	-4.631756
34135		0.631048	-0.599032	-0.340578	-0.356295	-84.399968	-58.948673	-4.630847
34136		0.631007	-0.599054	-0.340583	-0.356327	-84.405838	-58.952196	-4.630280
34137		0.631002	-0.599039	-0.340619	-0.356325	-84.406836	-58.955573	-4.626354
34138		0.631001	-0.598997	-0.340673	-0.356344	-84.402885	-58.962367	-4.625885
34139		0.631022	-0.598889	-0.340796	-0.356373	-84.390192	-58.976320	-4.625327
34140		0.631019	-0.598781	-0.340920	-0.356442	-84.377256	-58.994145	-4.628862
34141		0.631036	-0.598636	-0.341055	-0.356524	-84.355924	-59.013927	-4.637434
34142		0.631045	-0.598490	-0.341183	-0.356631	-84.332807	-59.035247	-4.650107
34143		0.631038	-0.598383	-0.341266	-0.356744	-84.314027	-59.052924	-4.664762
34144		0.630980	-0.598360	-0.341273	-0.356879	-84.306727	-59.065629	-4.681781
34145		0.630880	-0.598416	-0.341254	-0.356979	-84.317513	-59.073295	-4.687342
34146		0.630728	-0.598569	-0.341162	-0.357079	-84.344390	-59.074282	-4.690003
34147		0.630566	-0.598752	-0.341091	-0.357128	-84.382728	-59.072978	-4.679318
34148		0.630434	-0.598887	-0.341056	-0.357166	-84.413647	-59.073932	-4.668617
34149		0.630337	-0.599008	-0.341056	-0.357136	-84.446270	-59.072051	-4.647256
34150		0.630287	-0.599043	-0.341125	-0.357099	-84.465776	-59.075859	-4.626465
34151		0.630267	-0.599052	-0.341219	-0.357029	-84.481945	-59.078957	-4.602314
34152		0.630264	-0.599069	-0.341288	-0.356939	-84.497339	-59.077782	-4.578584
34153		0.630216	-0.599147	-0.341305	-0.356878	-84.521264	-59.074536	-4.557503
34154		0.630117	-0.599324	-0.341235	-0.356822	-84.559784	-59.063803	-4.536219
34155		0.630000	-0.599566	-0.341110	-0.356741	-84.608505	-59.045740	-4.511442
34156		0.629847	-0.599876	-0.340924	-0.356669	-84.666713	-59.022956	-4.487419
34157		0.629690	-0.600200	-0.340749	-0.356568	-84.730792	-58.998780	-4.456303
34158		0.629549	-0.600540	-0.340531	-0.356453	-84.793397	-58.969197	-4.428375
34159		0.629436	-0.600840	-0.340370	-0.356301	-84.853448	-58.941521	-4.393408
34160		0.629367	-0.601080	-0.340267	-0.356118	-84.905703	-58.916385	-4.354732
34161		0.629349	-0.601241	-0.340242	-0.355899	-84.948435	-58.895238	-4.311091
34162		0.629377	-0.601351	-0.340280	-0.355629	-84.986382	-58.875272	-4.259579
34163		0.629435	-0.601409	-0.340360	-0.355350	-85.016411	-58.858283	-4.208172
34164		0.629480	-0.601465	-0.340445	-0.355096	-85.046334	-58.843954	-4.158711
34165		0.629508	-0.601538	-0.340502	-0.354867	-85.076612	-58.829364	-4.114142
34166		0.629473	-0.601675	-0.340513	-0.354685	-85.116997	-58.814730	-4.072459
34167		0.629431	-0.601860	-0.340481	-0.354478	-85.164384	-58.794019	-4.028134
34168		0.629350	-0.602129	-0.340369	-0.354271	-85.223302	-58.766017	-3.984288
34169		0.629216	-0.602462	-0.340191	-0.354113	-85.289527	-58.736290	-3.946993
34170		0.629072	-0.602835	-0.339965	-0.353953	-85.359580	-58.701721	-3.911570
34171		0.628916	-0.603214	-0.339739	-0.353802	-85.431142	-58.668251	-3.876214
34172		0.628822	-0.603521	-0.339561	-0.353616	-85.490588	-58.635717	-3.840161
34173		0.628777	-0.603740	-0.339447	-0.353432	-85.535191	-58.609144	-3.807037
34174		0.628799	-0.603884	-0.339384	-0.353206	-85.567601	-58.583362	-3.772137
34175		0.628786	-0.604016	-0.339324	-0.353061	-85.595936	-58.565067	-3.747315
34176		0.628791	-0.604126	-0.339272	-0.352914	-85.619609	-58.547311	-3.724181
34177		0.628768	-0.604261	-0.339198	-0.352795	-85.646672	-58.530103	-3.703854
34178		0.628737	-0.604417	-0.339090	-0.352686	-85.674576	-58.510446	-3.687046
34179		0.628711	-0.604584	-0.338947	-0.352585	-85.700333	-58.488268	-3.675238
34180		0.628672	-0.604788	-0.338787	-0.352457	-85.733927	-58.462173	-3.657958
34181		0.628605	-0.605013	-0.338571	-0.352399	-85.764426	-58.437136	-3.654211
34182		0.628553	-0.605228	-0.338376	-0.352310	-85.795664	-58.411212	-3.645138
34183		0.628489	-0.605435	-0.338184	-0.352253	-85.824972	-58.388548	-3.639992
34184		0.628468	-0.605591	-0.338043	-0.352157	-85.848129	-58.366936	-3.630039
34185		0.628458	-0.605705	-0.337932	-0.352086	-85.863759	-58.350381	-3.624162
34186		0.628447	-0.605808	-0.337841	-0.352015	-85.879494	-58.335610	-3.616393
34187		0.628415	-0.605891	-0.337799	-0.351969	-85.896136	-58.327756	-3.606282
34188		0.628380	-0.605950	-0.337760	-0.351968	-85.906429	-58.324259	-3.603891
34189		0.628317	-0.606011	-0.337763	-0.351971	-85.923045	-58.325156	-3.594635
34190		0.628261	-0.606050	-0.337746	-0.352022	-85.930380	-58.328275	-3.597045
34191		0.628200	-0.606076	-0.337756	-0.352075	-85.938065	-58.334312	-3.597121
34192		0.628182	-0.606063	-0.337801	-0.352088	-85.940588	-58.339814	-3.593039
34193		0.628175	-0.605998	-0.337895	-0.352122	-85.935872	-58.351681	-3.590705
34194		0.628198	-0.605878	-0.338038	-0.352149	-85.923520	-58.367387	-3.587622
34195		0.628254	-0.605653	-0.338256	-0.352227	-85.892861	-58.394486	-3.593288
34196		0.628388	-0.605311	-0.338523	-0.352320	-85.837754	-58.427066	-3.609695
34197		0.628541	-0.604855	-0.338888	-0.352479	-85.765343	-58.474544	-3.633669
34198		0.628726	-0.604295	-0.339330	-0.352685	-85.675020	-58.533106	-3.665648
34199		0.628866	-0.603717	-0.339783	-0.352989	-85.580521	-58.601677	-3.708703
34200		0.628946	-0.603170	-0.340195	-0.353385	-85.486972	-58.674784	-3.764066
34201		0.628983	-0.602665	-0.340573	-0.353814	-85.399838	-58.747889	-3.822100
34202		0.628957	-0.602242	-0.340897	-0.354270	-85.326149	-58.818547	-3.880211
34203		0.628873	-0.601905	-0.341169	-0.354730	-85.268143	-58.884899	-3.934443
34204		0.628758	-0.601650	-0.341371	-0.355172	-85.222350	-58.943337	-3.986344
34205		0.628698	-0.601398	-0.341551	-0.355531	-85.175505	-58.992097	-4.032534
34206		0.628672	-0.601168	-0.341758	-0.355767	-85.139620	-59.032395	-4.058093
34207		0.628657	-0.600970	-0.341893	-0.355997	-85.102524	-59.065404	-4.089987
34208		0.628625	-0.600856	-0.341964	-0.356179	-85.079236	-59.088236	-4.115023
34209		0.628567	-0.600829	-0.341979	-0.356312	-85.072398	-59.101527	-4.130790
34210		0.628498	-0.600886	-0.341928	-0.356387	-85.079485	-59.103701	-4.138642
34211		0.628379	-0.601043	-0.341795	-0.356459	-85.102221	-59.098121	-4.144483
34212		0.628296	-0.601223	-0.341591	-0.356497	-85.121821	-59.082633	-4.154810
34213		0.628214	-0.601416	-0.341391	-0.356508	-85.145575	-59.065123	-4.159949
34214		0.628216	-0.601547	-0.341227	-0.356440	-85.158942	-59.043660	-4.159996
34215		0.628225	-0.601642	-0.341104	-0.356382	-85.168063	-59.026910	-4.159784
34216		0.628310	-0.601660	-0.341090	-0.356215	-85.172977	-59.010478	-4.141771
34217		0.628399	-0.601633	-0.341124	-0.356071	-85.172335	-59.000513	-4.124881
34218		0.628514	-0.601570	-0.341220	-0.355882	-85.171224	-58.992467	-4.098532
34219		0.628620	-0.601499	-0.341354	-0.355686	-85.173337	-58.987446	-4.066260
34220		0.628761	-0.601402	-0.341503	-0.355459	-85.170788	-58.980901	-4.032249
34221		0.628901	-0.601329	-0.341655	-0.355189	-85.175732	-58.970781	-3.989514
34222		0.629069	-0.601266	-0.341769	-0.354888	-85.178531	-58.954354	-3.948274
34223		0.629198	-0.601238	-0.341890	-0.354592	-85.191504	-58.939163	-3.901153
34224		0.629305	-0.601251	-0.341962	-0.354309	-85.208732	-58.920742	-3.857162
34225		0.629378	-0.601286	-0.342033	-0.354051	-85.231130	-58.904486	-3.812957
34226		0.629436	-0.601314	-0.342113	-0.353823	-85.252576	-58.891817	-3.771317
34227		0.629503	-0.601317	-0.342188	-0.353627	-85.266127	-58.881460	-3.737804
34228		0.629550	-0.601329	-0.342228	-0.353483	-85.276765	-58.872421	-3.714204
34229		0.629562	-0.601352	-0.342239	-0.353413	-85.285276	-58.867238	-3.701464
34230		0.629558	-0.601403	-0.342214	-0.353357	-85.296155	-58.859973	-3.692031
34231		0.629489	-0.601511	-0.342136	-0.353371	-85.313897	-58.854309	-3.690244
34232		0.629374	-0.601692	-0.342016	-0.353384	-85.345393	-58.844751	-3.684315
34233		0.629255	-0.601865	-0.341913	-0.353401	-85.377075	-58.837164	-3.677021
34234		0.629145	-0.602052	-0.341800	-0.353386	-85.411401	-58.825898	-3.666155
34235		0.629059	-0.602195	-0.341749	-0.353346	-85.442794	-58.817971	-3.649038
34236		0.629012	-0.602260	-0.341764	-0.353305	-85.462657	-58.816089	-3.632442
34237		0.629001	-0.602237	-0.341877	-0.353254	-85.473006	-58.822491	-3.611752
34238		0.629014	-0.602174	-0.342023	-0.353197	-85.477147	-58.831258	-3.591045
34239		0.629042	-0.602049	-0.342240	-0.353149	-85.474617	-58.847489	-3.568741
34240		0.629068	-0.601922	-0.342442	-0.353125	-85.469057	-58.864417	-3.551785
34241		0.629097	-0.601787	-0.342618	-0.353132	-85.457594	-58.881572	-3.543449
34242		0.629136	-0.601667	-0.342760	-0.353130	-85.445266	-58.894584	-3.537752
34243		0.629158	-0.601586	-0.342849	-0.353140	-85.436105	-58.903829	-3.536115
34244		0.629139	-0.601547	-0.342916	-0.353176	-85.434493	-58.913417	-3.534717
34245		0.629100	-0.601541	-0.342973	-0.353201	-85.440535	-58.921262	-3.528726
34246		0.629085	-0.601525	-0.343042	-0.353188	-85.446088	-58.926726	-3.518345
34247		0.629108	-0.601458	-0.343158	-0.353149	-85.444782	-58.934273	-3.505044
34248		0.629171	-0.601343	-0.343297	-0.353097	-85.434163	-58.942485	-3.493682
34249		0.629276	-0.601172	-0.343469	-0.353035	-85.413277	-58.952775	-3.484392
34250		0.629395	-0.600993	-0.343633	-0.352967	-85.389323	-58.961677	-3.476847
34251		0.629457	-0.600872	-0.343754	-0.352945	-85.374170	-58.970927	-3.472594
34252		0.629475	-0.600825	-0.343784	-0.352963	-85.365525	-58.975322	-3.476656
34253		0.629452	-0.600828	-0.343758	-0.353024	-85.362000	-58.978270	-3.486979
34254		0.629428	-0.600889	-0.343669	-0.353052	-85.365412	-58.972341	-3.495522
34255		0.629376	-0.600986	-0.343545	-0.353097	-85.373557	-58.964915	-3.506263
34256		0.629306	-0.601100	-0.343421	-0.353150	-85.386069	-58.958105	-3.515211
34257		0.629261	-0.601175	-0.343327	-0.353195	-85.392203	-58.953327	-3.524427
34258		0.629251	-0.601181	-0.343276	-0.353251	-85.386137	-58.953478	-3.537811
34259		0.629275	-0.601124	-0.343298	-0.353284	-85.373504	-58.958295	-3.546340
34260		0.629340	-0.601002	-0.343397	-0.353280	-85.354782	-58.967043	-3.547757
34261		0.629391	-0.600873	-0.343509	-0.353299	-85.335725	-58.978997	-3.550633
34262		0.629454	-0.600735	-0.343639	-0.353295	-85.317138	-58.990636	-3.549381
34263		0.629475	-0.600615	-0.343765	-0.353338	-85.302274	-59.006281	-3.550949
34264		0.629489	-0.600528	-0.343863	-0.353366	-85.292393	-59.017977	-3.550686
34265		0.629469	-0.600465	-0.343961	-0.353413	-85.288645	-59.031447	-3.548926
34266		0.629485	-0.600369	-0.344076	-0.353437	-85.278528	-59.044432	-3.546988
34267		0.629515	-0.600249	-0.344191	-0.353475	-85.262156	-59.058500	-3.549822
34268		0.629594	-0.600110	-0.344344	-0.353421	-85.247298	-59.067916	-3.539568
34269		0.629633	-0.599997	-0.344486	-0.353405	-85.237203	-59.079774	-3.531254
34270		0.629664	-0.599937	-0.344589	-0.353350	-85.236285	-59.084599	-3.517396
34271		0.629656	-0.599935	-0.344659	-0.353302	-85.246024	-59.087065	-3.501006
34272		0.629639	-0.599970	-0.344707	-0.353226	-85.263079	-59.085081	-3.479600
34273		0.629581	-0.600041	-0.344745	-0.353171	-85.288218	-59.084266	-3.456670
34274		0.629552	-0.600078	-0.344805	-0.353101	-85.307439	-59.083958	-3.433604
34275		0.629542	-0.600081	-0.344881	-0.353039	-85.319690	-59.085853	-3.413879
34276		0.629604	-0.600010	-0.345017	-0.352917	-85.321398	-59.087841	-3.388997
34277		0.629692	-0.599889	-0.345153	-0.352831	-85.309396	-59.092782	-3.375399
34278		0.629794	-0.599756	-0.345319	-0.352713	-85.298499	-59.097590	-3.355431
34279		0.629853	-0.599676	-0.345412	-0.352654	-85.290990	-59.100949	-3.345703
34280		0.629865	-0.599660	-0.345480	-0.352592	-85.297069	-59.101909	-3.330209
34281		0.629823	-0.599713	-0.345495	-0.352564	-85.313568	-59.101168	-3.316776
34282		0.629792	-0.599780	-0.345531	-0.352470	-85.337737	-59.096530	-3.290724
34283		0.629766	-0.599852	-0.345561	-0.352362	-85.362905	-59.090082	-3.263108
34284		0.629802	-0.599871	-0.345648	-0.352181	-85.382414	-59.082243	-3.226614
34285		0.629868	-0.599853	-0.345778	-0.351967	-85.398354	-59.075467	-3.185175
34286		0.629977	-0.599783	-0.345953	-0.351719	-85.407610	-59.069871	-3.140202
34287		0.630113	-0.599669	-0.346158	-0.351467	-85.409180	-59.066593	-3.096536
34288		0.630300	-0.599505	-0.346396	-0.351177	-85.402603	-59.062826	-3.050883
34289		0.630442	-0.599370	-0.346558	-0.350992	-85.391773	-59.061326	-3.024524
34290		0.630550	-0.599282	-0.346662	-0.350847	-85.384546	-59.057917	-3.005303
34291		0.630579	-0.599268	-0.346691	-0.350791	-85.385654	-59.055671	-2.996556
34292		0.630571	-0.599278	-0.346692	-0.350786	-85.388543	-59.055374	-2.994460
34293		0.630553	-0.599294	-0.346687	-0.350796	-85.392135	-59.055817	-2.993728
34294		0.630596	-0.599242	-0.346769	-0.350725	-85.390688	-59.057253	-2.980462
34295		0.630699	-0.599118	-0.346886	-0.350637	-85.375214	-59.060133	-2.970339
34296		0.630853	-0.598939	-0.347081	-0.350474	-85.356921	-59.063569	-2.947464
34297		0.630994	-0.598753	-0.347284	-0.350335	-85.337861	-59.070121	-2.926815
34298		0.631175	-0.598528	-0.347533	-0.350147	-85.315326	-59.076507	-2.899182
34299		0.631364	-0.598270	-0.347788	-0.349995	-85.284541	-59.086597	-2.879303
34300		0.631579	-0.598011	-0.347996	-0.349842	-85.246894	-59.091968	-2.867362
34301		0.631758	-0.597778	-0.348166	-0.349747	-85.210053	-59.099021	-2.863895
34302		0.631940	-0.597545	-0.348284	-0.349701	-85.165003	-59.105339	-2.874587
34303		0.632083	-0.597347	-0.348324	-0.349739	-85.117558	-59.111823	-2.901708
34304		0.632203	-0.597199	-0.348304	-0.349796	-85.074448	-59.114285	-2.933429
34305		0.632291	-0.597073	-0.348256	-0.349900	-85.032566	-59.118376	-2.971644
34306		0.632400	-0.596932	-0.348188	-0.350011	-84.983927	-59.121051	-3.016091
34307		0.632544	-0.596734	-0.348181	-0.350096	-84.928769	-59.127054	-3.056387
34308		0.632758	-0.596453	-0.348220	-0.350148	-84.858771	-59.134254	-3.097834
34309		0.633000	-0.596143	-0.348300	-0.350159	-84.787219	-59.141612	-3.132506
34310		0.633274	-0.595813	-0.348439	-0.350087	-84.719765	-59.147188	-3.151443
34311		0.633508	-0.595538	-0.348534	-0.350037	-84.660514	-59.150690	-3.171869
34312		0.633730	-0.595321	-0.348586	-0.349953	-84.611300	-59.147260	-3.186923
34313		0.633882	-0.595212	-0.348554	-0.349893	-84.578708	-59.138127	-3.202239
34314		0.633992	-0.595185	-0.348449	-0.349846	-84.557389	-59.123342	-3.218899
34315		0.634057	-0.595213	-0.348298	-0.349831	-84.543889	-59.107216	-3.238149
34316		0.634125	-0.595273	-0.348113	-0.349790	-84.534235	-59.085529	-3.255753
34317		0.634178	-0.595338	-0.347938	-0.349757	-84.527450	-59.065644	-3.271549
34318		0.634273	-0.595356	-0.347787	-0.349704	-84.512096	-59.046046	-3.288026
34319		0.634351	-0.595385	-0.347668	-0.349633	-84.504083	-59.028003	-3.295943
34320		0.634470	-0.595371	-0.347585	-0.349522	-84.490348	-59.009788	-3.299999
34321		0.634588	-0.595349	-0.347532	-0.349399	-84.478975	-58.993332	-3.298791
34322		0.634707	-0.595339	-0.347482	-0.349248	-84.471684	-58.974881	-3.292337
34323		0.634748	-0.595409	-0.347417	-0.349120	-84.482894	-58.957224	-3.279005
34324		0.634744	-0.595530	-0.347317	-0.349020	-84.502526	-58.938971	-3.266693
34325		0.634712	-0.595654	-0.347226	-0.348957	-84.523490	-58.924978	-3.256529
34326		0.634691	-0.595768	-0.347161	-0.348865	-84.545905	-58.910880	-3.240502
34327		0.634693	-0.595839	-0.347128	-0.348774	-84.561325	-58.899816	-3.225701
34328		0.634710	-0.595898	-0.347111	-0.348659	-84.576268	-58.888117	-3.207334
34329		0.634753	-0.595912	-0.347138	-0.348529	-84.585790	-58.879187	-3.186767
34330		0.634816	-0.595930	-0.347159	-0.348364	-84.595596	-58.866492	-3.163133
34331		0.634870	-0.595947	-0.347189	-0.348207	-84.606485	-58.855421	-3.138765
34332		0.634905	-0.596009	-0.347189	-0.348036	-84.625301	-58.840360	-3.111354
34333		0.634940	-0.596091	-0.347173	-0.347848	-84.647284	-58.822309	-3.081871
34334		0.634953	-0.596202	-0.347152	-0.347655	-84.676338	-58.803341	-3.048230
34335		0.634969	-0.596332	-0.347102	-0.347453	-84.706607	-58.780973	-3.015608
34336		0.634959	-0.596475	-0.347050	-0.347277	-84.739561	-58.760680	-2.984319
34337		0.634949	-0.596595	-0.347020	-0.347119	-84.769226	-58.744140	-2.954680
34338		0.634953	-0.596682	-0.347012	-0.346970	-84.793136	-58.730322	-2.927272
34339		0.634979	-0.596723	-0.347024	-0.346840	-84.807230	-58.720001	-2.905487
34340		0.635013	-0.596723	-0.347055	-0.346746	-84.812961	-58.714653	-2.890245
34341		0.635065	-0.596716	-0.347078	-0.346640	-84.815637	-58.707354	-2.876248
34342		0.635103	-0.596747	-0.347076	-0.346519	-84.825261	-58.696383	-2.859210
34343		0.635088	-0.596866	-0.347021	-0.346398	-84.850373	-58.680676	-2.838072
34344		0.635059	-0.597024	-0.346960	-0.346239	-84.885691	-58.661074	-2.807799
34345		0.635008	-0.597206	-0.346908	-0.346071	-84.928664	-58.641712	-2.771840
34346		0.634992	-0.597355	-0.346890	-0.345861	-84.968107	-58.621687	-2.730616
34347		0.635011	-0.597475	-0.346886	-0.345624	-85.002151	-58.600485	-2.688566
34348		0.635051	-0.597531	-0.346923	-0.345415	-85.024779	-58.585544	-2.652128
34349		0.635096	-0.597551	-0.346998	-0.345221	-85.043219	-58.575610	-2.616149
34350		0.635123	-0.597582	-0.347034	-0.345082	-85.058078	-58.566826	-2.591121
34351		0.635119	-0.597623	-0.347068	-0.344984	-85.074861	-58.561470	-2.569137
34352		0.635092	-0.597667	-0.347086	-0.344938	-85.089499	-58.559321	-2.554853
34353		0.635061	-0.597705	-0.347119	-0.344899	-85.104366	-58.559045	-2.539781
34354		0.635046	-0.597731	-0.347147	-0.344851	-85.115929	-58.557650	-2.526176
34355		0.635035	-0.597729	-0.347206	-0.344817	-85.123896	-58.560358	-2.513262
34356		0.635044	-0.597744	-0.347237	-0.344743	-85.133176	-58.556798	-2.498075
34357		0.635058	-0.597734	-0.347317	-0.344654	-85.142806	-58.556531	-2.476848
34358		0.635096	-0.597710	-0.347394	-0.344548	-85.148538	-58.554562	-2.456560
34359		0.635161	-0.597662	-0.347466	-0.344438	-85.147272	-58.551503	-2.440205
34360		0.635221	-0.597619	-0.347529	-0.344339	-85.145976	-58.548551	-2.425736
34361		0.635269	-0.597592	-0.347568	-0.344258	-85.145352	-58.544983	-2.414724
34362		0.635307	-0.597583	-0.347578	-0.344194	-85.145236	-58.540185	-2.407676
34363		0.635337	-0.597569	-0.347591	-0.344150	-85.143912	-58.537452	-2.402939
34364		0.635387	-0.597531	-0.347597	-0.344117	-85.135131	-58.534902	-2.404070
34365		0.635436	-0.597480	-0.347612	-0.344100	-85.124225	-58.534686	-2.407189
34366		0.635480	-0.597437	-0.347629	-0.344074	-85.115666	-58.533875	-2.407955
34367		0.635485	-0.597431	-0.347621	-0.344086	-85.112687	-58.534114	-2.411525
34368		0.635472	-0.597464	-0.347573	-0.344101	-85.114454	-58.530897	-2.416203
34369		0.635418	-0.597559	-0.347479	-0.344130	-85.125897	-58.524644	-2.420826
34370		0.635327	-0.597703	-0.347358	-0.344170	-85.146393	-58.516903	-2.423947
34371		0.635247	-0.597840	-0.347263	-0.344176	-85.169018	-58.508646	-2.420183
34372		0.635178	-0.597949	-0.347208	-0.344169	-85.190133	-58.503154	-2.412428
34373		0.635158	-0.597967	-0.347224	-0.344158	-85.197245	-58.503775	-2.406106
34374		0.635178	-0.597909	-0.347306	-0.344140	-85.193697	-58.509938	-2.399110
34375		0.635245	-0.597783	-0.347446	-0.344093	-85.180720	-58.518951	-2.389397
34376		0.635307	-0.597636	-0.347600	-0.344080	-85.163584	-58.532202	-2.384237
34377		0.635329	-0.597532	-0.347713	-0.344106	-85.151813	-58.545228	-2.383477
34378		0.635297	-0.597516	-0.347740	-0.344166	-85.150586	-58.553155	-2.387661
34379		0.635196	-0.597583	-0.347734	-0.344240	-85.166588	-58.559548	-2.386489
34380		0.635054	-0.597703	-0.347708	-0.344322	-85.193294	-58.564753	-2.381809
34381		0.634908	-0.597840	-0.347705	-0.344354	-85.228747	-58.567956	-2.365294
34382		0.634824	-0.597898	-0.347753	-0.344361	-85.250472	-58.573472	-2.349542
34383		0.634787	-0.597892	-0.347869	-0.344323	-85.265666	-58.581338	-2.327119
34384		0.634801	-0.597815	-0.348064	-0.344233	-85.273934	-58.592016	-2.296538
34385		0.634869	-0.597658	-0.348294	-0.344148	-85.265950	-58.606202	-2.272489
34386		0.634925	-0.597510	-0.348496	-0.344097	-85.256033	-58.620841	-2.255290
34387		0.634902	-0.597433	-0.348627	-0.344140	-85.253496	-58.637197	-2.249416
34388		0.634776	-0.597447	-0.348659	-0.344316	-85.259518	-58.656320	-2.260470
34389		0.634598	-0.597547	-0.348613	-0.344517	-85.277095	-58.670196	-2.274239
34390		0.634397	-0.597669	-0.348538	-0.344751	-85.295880	-58.684402	-2.293204
34391		0.634222	-0.597782	-0.348455	-0.344962	-85.311324	-58.695686	-2.312396
34392		0.634099	-0.597868	-0.348381	-0.345114	-85.321766	-58.702374	-2.327910
34393		0.634033	-0.597896	-0.348368	-0.345198	-85.326311	-58.708925	-2.334722
34394		0.634013	-0.597872	-0.348407	-0.345238	-85.324893	-58.716195	-2.336010
34395		0.634033	-0.597784	-0.348523	-0.345236	-85.318179	-58.727019	-2.329361
34396		0.634089	-0.597657	-0.348660	-0.345215	-85.304173	-58.738033	-2.323091
34397		0.634181	-0.597484	-0.348860	-0.345144	-85.287416	-58.750502	-2.308036
34398		0.634265	-0.597344	-0.349019	-0.345072	-85.273757	-58.759085	-2.294728
34399		0.634279	-0.597285	-0.349096	-0.345070	-85.269101	-58.766194	-2.290394
34400		0.634238	-0.597314	-0.349095	-0.345096	-85.276390	-58.768560	-2.288884
34401		0.634154	-0.597410	-0.349023	-0.345157	-85.290734	-58.767307	-2.293121
34402		0.634081	-0.597522	-0.348911	-0.345211	-85.303890	-58.761687	-2.300808
34403		0.633999	-0.597634	-0.348809	-0.345269	-85.318559	-58.757264	-2.307196
34404		0.633970	-0.597718	-0.348744	-0.345242	-85.331954	-58.748873	-2.302690
34405		0.633935	-0.597777	-0.348727	-0.345222	-85.345249	-58.745703	-2.294804
34406		0.633915	-0.597821	-0.348715	-0.345195	-85.355556	-58.742206	-2.287476
34407		0.633911	-0.597835	-0.348766	-0.345128	-85.367126	-58.741113	-2.269877
34408		0.633893	-0.597864	-0.348812	-0.345063	-85.382102	-58.739911	-2.251052
34409		0.633869	-0.597895	-0.348860	-0.345006	-85.397775	-58.739561	-2.232440
34410		0.633825	-0.597945	-0.348898	-0.344960	-85.417223	-58.739309	-2.213568
34411		0.633739	-0.598032	-0.348925	-0.344940	-85.444090	-58.740420	-2.194279
34412		0.633646	-0.598121	-0.348929	-0.344953	-85.468054	-58.742328	-2.181613
34413		0.633568	-0.598194	-0.348934	-0.344965	-85.488006	-58.744096	-2.171185
34414		0.633519	-0.598230	-0.348966	-0.344960	-85.502062	-58.746945	-2.159921
34415		0.633492	-0.598234	-0.349020	-0.344949	-85.510904	-58.751214	-2.149095
34416		0.633481	-0.598229	-0.349067	-0.344929	-85.516602	-58.754037	-2.139801
34417		0.633470	-0.598230	-0.349113	-0.344901	-85.523534	-58.755941	-2.129153
34418		0.633461	-0.598231	-0.349149	-0.344879	-85.529371	-58.757397	-2.120508
34419		0.633433	-0.598264	-0.349158	-0.344865	-85.539486	-58.757164	-2.112662
34420		0.633377	-0.598330	-0.349133	-0.344878	-85.553204	-58.756172	-2.108384
34421		0.633308	-0.598395	-0.349134	-0.344893	-85.570309	-58.757713	-2.100145
34422		0.633272	-0.598441	-0.349117	-0.344895	-85.580009	-58.756438	-2.096432
34423		0.633272	-0.598430	-0.349155	-0.344876	-85.582858	-58.758413	-2.089624
34424		0.633295	-0.598398	-0.349203	-0.344840	-85.581664	-58.759723	-2.082524
34425		0.633330	-0.598347	-0.349262	-0.344804	-85.576953	-58.762053	-2.076389
34426		0.633376	-0.598283	-0.349318	-0.344774	-85.568275	-58.764618	-2.073490
34427		0.633418	-0.598232	-0.349355	-0.344748	-85.560436	-58.765692	-2.072013
34428		0.633449	-0.598219	-0.349339	-0.344729	-85.554985	-58.762368	-2.074646
34429		0.633467	-0.598249	-0.349290	-0.344694	-85.556240	-58.754602	-2.074848
34430		0.633442	-0.598329	-0.349205	-0.344689	-85.565286	-58.746029	-2.076807
34431		0.633430	-0.598427	-0.349096	-0.344651	-85.576192	-58.732319	-2.076600
34432		0.633418	-0.598521	-0.348976	-0.344630	-85.584530	-58.719128	-2.080400
34433		0.633412	-0.598601	-0.348856	-0.344624	-85.588422	-58.707147	-2.088329
34434		0.633420	-0.598659	-0.348749	-0.344618	-85.588627	-58.696389	-2.097069
34435		0.633409	-0.598713	-0.348654	-0.344639	-85.589300	-58.689233	-2.107104
34436		0.633403	-0.598775	-0.348549	-0.344649	-85.590703	-58.680103	-2.116635
34437		0.633395	-0.598833	-0.348424	-0.344689	-85.587898	-58.671708	-2.133042
34438		0.633354	-0.598919	-0.348289	-0.344751	-85.590702	-58.664456	-2.149520
34439		0.633328	-0.599007	-0.348172	-0.344764	-85.597386	-58.654568	-2.157336
34440		0.633278	-0.599121	-0.348038	-0.344793	-85.608113	-58.644437	-2.165963
34441		0.633239	-0.599217	-0.347958	-0.344778	-85.622348	-58.635717	-2.163576
34442		0.633183	-0.599318	-0.347907	-0.344757	-85.642008	-58.629210	-2.155039
34443		0.633176	-0.599347	-0.347902	-0.344724	-85.649417	-58.625830	-2.148047
34444		0.633196	-0.599355	-0.347940	-0.344636	-85.657827	-58.621579	-2.131361
34445		0.633233	-0.599307	-0.347986	-0.344605	-85.651996	-58.623143	-2.127588
34446		0.633295	-0.599212	-0.348049	-0.344592	-85.636011	-58.627743	-2.129747
34447		0.633341	-0.599131	-0.348111	-0.344587	-85.623357	-58.633135	-2.130905
34448		0.633331	-0.599099	-0.348105	-0.344667	-85.613252	-58.639556	-2.144912
34449		0.633266	-0.599113	-0.348093	-0.344773	-85.614074	-58.648054	-2.155871
34450		0.633161	-0.599175	-0.348059	-0.344895	-85.624007	-58.655867	-2.165113
34451		0.633058	-0.599220	-0.348049	-0.345014	-85.633399	-58.665833	-2.172319
34452		0.633007	-0.599224	-0.348062	-0.345086	-85.635490	-58.673659	-2.177032
34453		0.633008	-0.599163	-0.348152	-0.345100	-85.631963	-58.683413	-2.172355
34454		0.633019	-0.599102	-0.348217	-0.345121	-85.624653	-58.691417	-2.172830
34455		0.633050	-0.599034	-0.348295	-0.345103	-85.618054	-58.697228	-2.167886
34456		0.633033	-0.599022	-0.348340	-0.345111	-85.621076	-58.702270	-2.162906
34457		0.632981	-0.599045	-0.348353	-0.345154	-85.628474	-58.707425	-2.161829
34458		0.632906	-0.599082	-0.348341	-0.345238	-85.635740	-58.713990	-2.166975
34459		0.632836	-0.599110	-0.348334	-0.345325	-85.641099	-58.721345	-2.173098
34460		0.632784	-0.599113	-0.348329	-0.345418	-85.640217	-58.729247	-2.183143
34461		0.632759	-0.599078	-0.348356	-0.345500	-85.633737	-58.739144	-2.192321
34462		0.632724	-0.599038	-0.348391	-0.345596	-85.627080	-58.751081	-2.202381
34463		0.632722	-0.598979	-0.348442	-0.345653	-85.617984	-58.760985	-2.208481
34464		0.632707	-0.598947	-0.348456	-0.345721	-85.610687	-58.768421	-2.218007
34465		0.632673	-0.598953	-0.348461	-0.345769	-85.612374	-58.773148	-2.221328
34466		0.632603	-0.599011	-0.348409	-0.345849	-85.619405	-58.775521	-2.229784
34467		0.632546	-0.599066	-0.348368	-0.345898	-85.627691	-58.776203	-2.233437
34468		0.632501	-0.599137	-0.348282	-0.345944	-85.633997	-58.772206	-2.241935
34469		0.632461	-0.599178	-0.348237	-0.345990	-85.637801	-58.772164	-2.248341
34470		0.632412	-0.599221	-0.348185	-0.346058	-85.641152	-58.773418	-2.257658
34471		0.632417	-0.599195	-0.348215	-0.346065	-85.638218	-58.776845	-2.257351
34472		0.632429	-0.599160	-0.348239	-0.346080	-85.632239	-58.780339	-2.260087
34473		0.632434	-0.599131	-0.348265	-0.346094	-85.628072	-58.784057	-2.261428
34474		0.632414	-0.599118	-0.348265	-0.346154	-85.623833	-58.789407	-2.269736
34475		0.632371	-0.599132	-0.348273	-0.346199	-85.628381	-58.794356	-2.270857
34476		0.632283	-0.599192	-0.348222	-0.346308	-85.635690	-58.799373	-2.281836
34477		0.632185	-0.599271	-0.348179	-0.346392	-85.649641	-58.803185	-2.286011
34478		0.632055	-0.599368	-0.348142	-0.346498	-85.668914	-58.809534	-2.288739
34479		0.631976	-0.599431	-0.348122	-0.346553	-85.682360	-58.812787	-2.288259
34480		0.631925	-0.599464	-0.348141	-0.346571	-85.693412	-58.816373	-2.282149
34481		0.631921	-0.599450	-0.348209	-0.346534	-85.699792	-58.819599	-2.268935
34482		0.631940	-0.599430	-0.348249	-0.346494	-85.700572	-58.819742	-2.261044
34483		0.631971	-0.599398	-0.348303	-0.346438	-85.700542	-58.819881	-2.250784
34484		0.631985	-0.599389	-0.348287	-0.346445	-85.695740	-58.818840	-2.255599
34485		0.631960	-0.599412	-0.348267	-0.346471	-85.698567	-58.819320	-2.258369
34486		0.631910	-0.599446	-0.348227	-0.346543	-85.701222	-58.822104	-2.267399
34487		0.631850	-0.599480	-0.348155	-0.346665	-85.698795	-58.826226	-2.286977
34488		0.631792	-0.599509	-0.348082	-0.346794	-85.694644	-58.830905	-2.308353
34489		0.631775	-0.599469	-0.348065	-0.346912	-85.680163	-58.839676	-2.329549
34490		0.631769	-0.599416	-0.348040	-0.347038	-85.661215	-58.848602	-2.354757
34491		0.631785	-0.599351	-0.348063	-0.347098	-85.646568	-58.855971	-2.366754
34492		0.631780	-0.599288	-0.348102	-0.347180	-85.634102	-58.866860	-2.378397
34493		0.631766	-0.599245	-0.348167	-0.347213	-85.631554	-58.876119	-2.377374
34494		0.631740	-0.599210	-0.348225	-0.347263	-85.630023	-58.886093	-2.377940
34495		0.631750	-0.599160	-0.348300	-0.347256	-85.627545	-58.892662	-2.371984
34496		0.631759	-0.599118	-0.348343	-0.347268	-85.622477	-58.897756	-2.372196
34497		0.631788	-0.599063	-0.348391	-0.347263	-85.614458	-58.901780	-2.372117
34498		0.631786	-0.599034	-0.348386	-0.347320	-85.605676	-58.906381	-2.382986
34499		0.631784	-0.599023	-0.348366	-0.347364	-85.599322	-58.908344	-2.392675
34500		0.631743	-0.599035	-0.348322	-0.347463	-85.594878	-58.912999	-2.408778
34501		0.631724	-0.599056	-0.348248	-0.347534	-85.589314	-58.912355	-2.425313
34502		0.631702	-0.599071	-0.348194	-0.347603	-85.584768	-58.913380	-2.439406
34503		0.631637	-0.599133	-0.348111	-0.347697	-85.588305	-58.913951	-2.453966
34504		0.631576	-0.599203	-0.348022	-0.347776	-85.593396	-58.912742	-2.466681
34505		0.631536	-0.599244	-0.347977	-0.347823	-85.597189	-58.912717	-2.473107
34506		0.631511	-0.599262	-0.347976	-0.347838	-85.601805	-58.914100	-2.472039
34507		0.631516	-0.599244	-0.347999	-0.347838	-85.600198	-58.916193	-2.470830
34508		0.631515	-0.599226	-0.348048	-0.347822	-85.602632	-58.919471	-2.463688
34509		0.631516	-0.599215	-0.348097	-0.347788	-85.607129	-58.921166	-2.453484
34510		0.631506	-0.599204	-0.348182	-0.347743	-85.616706	-58.925289	-2.436086
34511		0.631477	-0.599215	-0.348246	-0.347711	-85.629339	-58.928708	-2.420253
34512		0.631470	-0.599216	-0.348271	-0.347696	-85.633306	-58.929781	-2.414301
34513		0.631471	-0.599201	-0.348303	-0.347691	-85.633708	-58.932365	-2.410791
34514		0.631481	-0.599186	-0.348315	-0.347684	-85.631702	-58.932918	-2.410149
34515		0.631466	-0.599172	-0.348335	-0.347715	-85.630401	-58.937685	-2.412134
34516		0.631440	-0.599180	-0.348346	-0.347737	-85.634083	-58.940769	-2.411246
34517		0.631406	-0.599212	-0.348330	-0.347761	-85.639770	-58.941473	-2.411815
34518		0.631397	-0.599232	-0.348344	-0.347728	-85.647690	-58.939848	-2.402821
34519		0.631354	-0.599286	-0.348331	-0.347728	-85.660064	-58.938838	-2.396947
34520		0.631347	-0.599311	-0.348353	-0.347675	-85.670411	-58.936268	-2.384084
34521		0.631318	-0.599357	-0.348362	-0.347640	-85.684388	-58.934126	-2.371987
34522		0.631293	-0.599412	-0.348391	-0.347560	-85.704214	-58.930021	-2.350396
34523		0.631242	-0.599472	-0.348438	-0.347502	-85.727457	-58.929537	-2.327452
34524		0.631225	-0.599462	-0.348515	-0.347473	-85.736389	-58.934355	-2.312706
34525		0.631247	-0.599411	-0.348619	-0.347417	-85.738017	-58.939208	-2.297192
34526		0.631249	-0.599360	-0.348757	-0.347363	-85.744837	-58.947603	-2.275811
34527		0.631257	-0.599277	-0.348908	-0.347340	-85.744697	-58.959902	-2.260358
34528		0.631271	-0.599180	-0.349066	-0.347322	-85.741828	-58.973348	-2.246196
34529		0.631261	-0.599121	-0.349214	-0.347293	-85.747540	-58.985019	-2.227030
34530		0.631233	-0.599103	-0.349320	-0.347270	-85.758097	-58.993052	-2.209425
34531		0.631173	-0.599146	-0.349391	-0.347233	-85.780264	-58.996812	-2.186968
34532		0.631091	-0.599211	-0.349462	-0.347198	-85.808280	-59.000800	-2.161457
34533		0.630989	-0.599311	-0.349520	-0.347153	-85.843861	-59.002735	-2.131764
34534		0.630889	-0.599406	-0.349547	-0.347143	-85.873384	-59.004802	-2.111687
34535		0.630860	-0.599428	-0.349635	-0.347069	-85.892663	-59.006690	-2.085764
34536		0.630858	-0.599412	-0.349757	-0.346977	-85.906864	-59.010181	-2.058042
34537		0.630834	-0.599408	-0.349860	-0.346924	-85.921399	-59.015334	-2.035498
34538		0.630802	-0.599409	-0.349928	-0.346912	-85.931618	-59.020914	-2.022438
34539		0.630745	-0.599428	-0.349987	-0.346924	-85.945052	-59.027769	-2.010775
34540		0.630674	-0.599468	-0.350012	-0.346957	-85.959092	-59.033325	-2.003930
34541		0.630605	-0.599503	-0.350026	-0.347009	-85.969848	-59.039505	-2.001634
34542		0.630536	-0.599509	-0.350086	-0.347065	-85.979453	-59.050357	-1.996265
34543		0.630501	-0.599491	-0.350141	-0.347101	-85.982470	-59.059013	-1.993165
34544		0.630495	-0.599436	-0.350234	-0.347114	-85.981042	-59.069054	-1.986956
34545		0.630485	-0.599355	-0.350362	-0.347143	-85.977717	-59.083856	-1.980244
34546		0.630505	-0.599223	-0.350509	-0.347187	-85.963126	-59.101681	-1.979746
34547		0.630551	-0.599045	-0.350699	-0.347220	-85.942685	-59.122582	-1.977687
34548		0.630571	-0.598890	-0.350857	-0.347289	-85.923612	-59.143744	-1.981156
34549		0.630543	-0.598810	-0.350932	-0.347404	-85.911643	-59.161214	-1.992495
34550		0.630457	-0.598778	-0.350997	-0.347549	-85.910974	-59.180500	-2.001197
34551		0.630384	-0.598752	-0.351044	-0.347678	-85.909552	-59.196757	-2.010355
34552		0.630377	-0.598659	-0.351159	-0.347735	-85.900737	-59.212778	-2.010750
34553		0.630432	-0.598486	-0.351328	-0.347761	-85.878749	-59.231067	-2.010813
34554		0.630558	-0.598217	-0.351582	-0.347741	-85.843667	-59.253178	-2.006217
34555		0.630706	-0.597924	-0.351851	-0.347704	-85.804857	-59.275083	-2.000726
34556		0.630804	-0.597636	-0.352108	-0.347760	-85.764498	-59.304207	-2.006336
34557		0.630865	-0.597398	-0.352340	-0.347824	-85.733868	-59.331922	-2.009390
34558		0.630848	-0.597214	-0.352546	-0.347962	-85.712771	-59.363939	-2.016684
34559		0.630797	-0.597071	-0.352720	-0.348125	-85.698017	-59.395211	-2.025466
34560		0.630730	-0.596945	-0.352878	-0.348299	-85.685445	-59.426064	-2.035671
34561		0.630655	-0.596828	-0.353032	-0.348480	-85.674496	-59.457034	-2.045922
34562		0.630623	-0.596688	-0.353201	-0.348608	-85.660098	-59.484682	-2.051600
34563		0.630608	-0.596546	-0.353363	-0.348713	-85.644348	-59.509566	-2.056553
34564		0.630620	-0.596361	-0.353546	-0.348824	-85.620100	-59.536863	-2.064971
34565		0.630618	-0.596207	-0.353711	-0.348923	-85.601790	-59.561518	-2.070457
34566		0.630612	-0.596059	-0.353843	-0.349054	-85.579591	-59.585712	-2.084320
34567		0.630597	-0.595923	-0.353967	-0.349186	-85.559710	-59.609383	-2.097651
34568		0.630561	-0.595833	-0.354047	-0.349324	-85.545416	-59.629421	-2.112230
34569		0.630494	-0.595779	-0.354090	-0.349493	-85.535188	-59.648761	-2.130858
34570		0.630449	-0.595732	-0.354131	-0.349611	-85.527219	-59.663365	-2.143375
34571		0.630389	-0.595698	-0.354141	-0.349768	-85.517692	-59.678454	-2.163253
34572		0.630363	-0.595637	-0.354176	-0.349885	-85.504735	-59.692209	-2.179051
34573		0.630376	-0.595545	-0.354236	-0.349954	-85.488085	-59.704132	-2.190097
34574		0.630430	-0.595427	-0.354310	-0.349984	-85.466554	-59.713654	-2.198789
34575		0.630484	-0.595297	-0.354390	-0.350027	-85.442709	-59.724861	-2.209608
34576		0.630539	-0.595173	-0.354501	-0.350027	-85.425543	-59.735285	-2.209689
34577		0.630598	-0.595056	-0.354602	-0.350017	-85.408970	-59.743940	-2.209279
34578		0.630656	-0.594953	-0.354700	-0.349988	-85.395866	-59.750560	-2.205205
34579		0.630706	-0.594886	-0.354788	-0.349924	-85.391513	-59.753161	-2.193668
34580		0.630741	-0.594854	-0.354812	-0.349890	-85.386904	-59.752288	-2.190920
34581		0.630810	-0.594827	-0.354840	-0.349783	-85.384939	-59.745308	-2.179018
34582		0.630892	-0.594796	-0.354818	-0.349712	-85.374188	-59.736524	-2.180137
34583		0.631015	-0.594739	-0.354815	-0.349589	-85.359893	-59.724974	-2.176621
34584		0.631119	-0.594705	-0.354780	-0.349493	-85.346847	-59.712654	-2.177722
34585		0.631205	-0.594693	-0.354731	-0.349409	-85.337343	-59.700284	-2.179319
34586		0.631232	-0.594740	-0.354626	-0.349386	-85.334781	-59.688078	-2.187758
34587		0.631254	-0.594792	-0.354537	-0.349348	-85.336310	-59.676116	-2.191037
34588		0.631264	-0.594859	-0.354431	-0.349324	-85.338965	-59.663774	-2.196553
34589		0.631299	-0.594924	-0.354353	-0.349229	-85.346194	-59.647702	-2.189933
34590		0.631346	-0.594982	-0.354281	-0.349118	-85.352633	-59.630779	-2.181761
34591		0.631418	-0.595028	-0.354217	-0.348975	-85.357458	-59.611789	-2.170655
34592		0.631475	-0.595095	-0.354143	-0.348831	-85.366540	-59.591749	-2.157858
34593		0.631523	-0.595150	-0.354100	-0.348694	-85.376616	-59.575317	-2.142517
34594		0.631613	-0.595172	-0.354094	-0.348502	-85.383956	-59.557404	-2.120006
34595		0.631676	-0.595195	-0.354076	-0.348366	-85.389182	-59.543421	-2.105288
34596		0.631727	-0.595222	-0.354028	-0.348277	-85.390423	-59.530707	-2.100069
34597		0.631833	-0.595185	-0.354019	-0.348155	-85.380795	-59.518831	-2.094414
34598		0.631937	-0.595134	-0.354017	-0.348055	-85.368080	-59.509403	-2.092032
34599		0.632021	-0.595102	-0.353996	-0.347981	-85.357071	-59.500506	-2.093035
34600		0.632076	-0.595076	-0.353950	-0.347970	-85.343743	-59.494891	-2.103538
34601		0.632145	-0.595034	-0.353921	-0.347947	-85.328355	-59.489816	-2.112710
34602		0.632216	-0.594983	-0.353901	-0.347926	-85.312038	-59.485836	-2.121725
34603		0.632305	-0.594900	-0.353926	-0.347881	-85.293816	-59.483947	-2.125536
34604		0.632402	-0.594800	-0.353954	-0.347845	-85.271668	-59.483126	-2.132109
34605		0.632532	-0.594698	-0.353988	-0.347750	-85.250275	-59.477542	-2.132067
34606		0.632662	-0.594617	-0.354034	-0.347607	-85.236936	-59.468764	-2.121561
34607		0.632770	-0.594561	-0.354019	-0.347520	-85.220926	-59.459406	-2.123499
34608		0.632869	-0.594528	-0.354005	-0.347410	-85.211550	-59.447936	-2.119238
34609		0.632916	-0.594553	-0.353948	-0.347338	-85.210903	-59.435973	-2.117600
34610		0.632964	-0.594596	-0.353881	-0.347247	-85.213672	-59.421388	-2.113056
34611		0.632986	-0.594628	-0.353831	-0.347204	-85.215346	-59.412582	-2.112315
34612		0.633079	-0.594609	-0.353808	-0.347089	-85.208429	-59.399940	-2.107053
34613		0.633152	-0.594573	-0.353810	-0.347015	-85.200192	-59.393371	-2.104260
34614		0.633247	-0.594499	-0.353849	-0.346929	-85.186958	-59.389164	-2.099969
34615		0.633354	-0.594407	-0.353906	-0.346833	-85.172103	-59.385846	-2.093979
34616		0.633496	-0.594280	-0.353994	-0.346702	-85.152519	-59.382133	-2.084488
34617		0.633612	-0.594175	-0.354041	-0.346622	-85.132236	-59.379182	-2.084083
34618		0.633709	-0.594094	-0.354080	-0.346543	-85.117235	-59.375651	-2.081438
34619		0.633771	-0.594057	-0.354079	-0.346496	-85.107642	-59.371239	-2.082429
34620		0.633838	-0.594028	-0.354082	-0.346419	-85.101452	-59.364461	-2.078017
34621		0.633920	-0.593975	-0.354087	-0.346354	-85.088972	-59.359021	-2.078376
34622		0.634044	-0.593888	-0.354110	-0.346254	-85.070212	-59.351851	-2.077227
34623		0.634122	-0.593830	-0.354114	-0.346206	-85.055994	-59.347772	-2.080272
34624		0.634210	-0.593773	-0.354133	-0.346124	-85.044483	-59.342064	-2.077131
34625		0.634265	-0.593724	-0.354157	-0.346082	-85.035499	-59.340546	-2.075972
34626		0.634340	-0.593670	-0.354193	-0.346000	-85.027309	-59.336495	-2.069432
34627		0.634401	-0.593624	-0.354199	-0.345961	-85.016381	-59.333423	-2.071336
34628		0.634475	-0.593580	-0.354225	-0.345874	-85.009604	-59.327962	-2.064340
34629		0.634518	-0.593569	-0.354197	-0.345843	-85.003099	-59.322447	-2.067413
34630		0.634574	-0.593571	-0.354161	-0.345774	-84.999240	-59.312725	-2.066033
34631		0.634595	-0.593597	-0.354120	-0.345731	-85.000845	-59.304957	-2.064519
34632		0.634614	-0.593640	-0.354089	-0.345656	-85.008710	-59.295176	-2.055401
34633		0.634614	-0.593689	-0.354051	-0.345610	-85.016973	-59.287561	-2.049506
34634		0.634668	-0.593668	-0.354081	-0.345517	-85.016861	-59.282117	-2.037807
34635		0.634727	-0.593611	-0.354138	-0.345445	-85.011094	-59.281041	-2.029029
34636		0.634822	-0.593499	-0.354230	-0.345371	-84.995263	-59.283005	-2.022703
34637		0.634880	-0.593403	-0.354324	-0.345332	-84.984011	-59.288384	-2.016915
34638		0.634950	-0.593297	-0.354452	-0.345253	-84.975382	-59.293575	-2.002845
34639		0.634953	-0.593261	-0.354505	-0.345255	-84.973455	-59.298836	-1.999417
34640		0.634938	-0.593262	-0.354542	-0.345244	-84.979180	-59.301440	-1.991843
34641		0.634889	-0.593302	-0.354552	-0.345256	-84.990932	-59.303581	-1.985473
34642		0.634905	-0.593304	-0.354594	-0.345180	-84.998740	-59.300858	-1.969850
34643		0.634881	-0.593339	-0.354601	-0.345157	-85.009434	-59.299548	-1.960891
34644		0.634905	-0.593336	-0.354641	-0.345076	-85.015379	-59.296284	-1.946069
34645		0.634885	-0.593376	-0.354649	-0.345037	-85.027810	-59.293607	-1.934420
34646		0.634879	-0.593396	-0.354709	-0.344951	-85.042962	-59.291847	-1.912131
34647		0.634825	-0.593452	-0.354727	-0.344937	-85.060610	-59.292533	-1.899157
34648		0.634782	-0.593488	-0.354753	-0.344926	-85.074305	-59.294185	-1.887991
34649		0.634737	-0.593522	-0.354767	-0.344936	-85.085197	-59.296585	-1.881523
34650		0.634741	-0.593508	-0.354829	-0.344888	-85.091234	-59.298365	-1.867843
34651		0.634732	-0.593475	-0.354886	-0.344904	-85.090489	-59.305188	-1.864842
34652		0.634721	-0.593454	-0.354949	-0.344895	-85.094204	-59.310511	-1.856324
34653		0.634739	-0.593406	-0.355017	-0.344875	-85.091442	-59.315222	-1.849911
34654		0.634756	-0.593375	-0.355036	-0.344877	-85.086087	-59.317254	-1.851417
34655		0.634757	-0.593356	-0.355065	-0.344879	-85.085219	-59.320105	-1.849538
34656		0.634743	-0.593374	-0.355043	-0.344896	-85.086603	-59.319566	-1.852307
34657		0.634738	-0.593384	-0.355032	-0.344897	-85.087723	-59.318687	-1.852839
34658		0.634770	-0.593378	-0.355054	-0.344827	-85.090145	-59.314446	-1.842686
34659		0.634767	-0.593403	-0.355026	-0.344820	-85.092694	-59.311154	-1.843033
34660		0.634770	-0.593423	-0.354986	-0.344821	-85.092287	-59.307352	-1.846849
34661		0.634763	-0.593443	-0.354957	-0.344830	-85.093102	-59.305424	-1.849885
34662		0.634738	-0.593477	-0.354898	-0.344877	-85.093044	-59.303943	-1.859649
34663		0.634736	-0.593504	-0.354857	-0.344876	-85.094424	-59.299883	-1.862411
34664		0.634718	-0.593545	-0.354802	-0.344895	-85.097009	-59.296380	-1.867669
34665		0.634686	-0.593608	-0.354727	-0.344923	-85.102702	-59.291746	-1.873745
34666		0.634638	-0.593697	-0.354643	-0.344945	-85.113832	-59.285776	-1.876989
34667		0.634596	-0.593780	-0.354569	-0.344956	-85.125021	-59.279714	-1.878233
34668		0.634545	-0.593870	-0.354499	-0.344966	-85.138784	-59.274056	-1.877518
34669		0.634503	-0.593927	-0.354473	-0.344972	-85.150020	-59.272213	-1.874028
34670		0.634494	-0.593924	-0.354502	-0.344962	-85.153777	-59.274202	-1.868381
34671		0.634535	-0.593846	-0.354605	-0.344918	-85.148358	-59.279985	-1.858080
34672		0.634608	-0.593724	-0.354745	-0.344848	-85.137251	-59.287115	-1.845109
34673		0.634656	-0.593632	-0.354854	-0.344807	-85.128849	-59.293745	-1.836294
34674		0.634661	-0.593606	-0.354882	-0.344812	-85.126273	-59.296933	-1.835699
34675		0.634635	-0.593640	-0.354875	-0.344811	-85.134055	-59.296196	-1.831848
34676		0.634610	-0.593720	-0.354839	-0.344755	-85.150950	-59.287887	-1.819961
34677		0.634539	-0.593865	-0.354741	-0.344736	-85.175786	-59.277065	-1.812575
34678		0.634451	-0.594037	-0.354623	-0.344723	-85.204539	-59.264805	-1.805509
34679		0.634388	-0.594196	-0.354514	-0.344677	-85.231637	-59.250483	-1.795198
34680		0.634353	-0.594317	-0.354429	-0.344621	-85.252219	-59.237472	-1.785471
34681		0.634343	-0.594379	-0.354402	-0.344559	-85.265805	-59.229436	-1.774076
34682		0.634374	-0.594379	-0.354429	-0.344477	-85.270552	-59.224651	-1.760937
34683		0.634421	-0.594337	-0.354485	-0.344404	-85.268536	-59.223476	-1.750010
34684		0.634479	-0.594282	-0.354566	-0.344308	-85.266908	-59.222602	-1.734465
34685		0.634521	-0.594241	-0.354627	-0.344238	-85.265672	-59.222206	-1.722879
34686		0.634549	-0.594231	-0.354689	-0.344140	-85.273340	-59.219339	-1.703434
34687		0.634515	-0.594300	-0.354696	-0.344078	-85.293312	-59.214607	-1.685437
34688		0.634456	-0.594400	-0.354674	-0.344035	-85.317563	-59.208908	-1.669395
34689		0.634409	-0.594480	-0.354677	-0.343979	-85.340028	-59.204392	-1.650937
34690		0.634403	-0.594503	-0.354739	-0.343888	-85.356192	-59.202184	-1.627366
34691		0.634391	-0.594495	-0.354807	-0.343854	-85.364343	-59.205866	-1.613392
34692		0.634397	-0.594431	-0.354946	-0.343810	-85.368278	-59.215248	-1.594477
34693		0.634407	-0.594355	-0.355101	-0.343762	-85.371282	-59.225866	-1.574407
34694		0.634420	-0.594272	-0.355265	-0.343714	-85.373521	-59.237354	-1.553985
34695		0.634410	-0.594211	-0.355413	-0.343684	-85.379442	-59.248991	-1.534519
34696		0.634403	-0.594168	-0.355546	-0.343633	-85.388167	-59.257259	-1.512771
34697		0.634369	-0.594155	-0.355636	-0.343627	-85.397771	-59.265421	-1.498789
34698		0.634337	-0.594150	-0.355720	-0.343606	-85.409202	-59.271720	-1.482681
34699		0.634265	-0.594156	-0.355785	-0.343662	-85.419611	-59.283101	-1.476604
34700		0.634210	-0.594176	-0.355818	-0.343695	-85.429298	-59.289340	-1.471238
34701		0.634142	-0.594180	-0.355846	-0.343784	-85.433591	-59.300086	-1.475012
34702		0.634112	-0.594176	-0.355849	-0.343844	-85.431986	-59.305811	-1.481606
34703		0.634066	-0.594185	-0.355856	-0.343906	-85.434845	-59.312070	-1.485363
34704		0.634069	-0.594178	-0.355853	-0.343915	-85.432271	-59.312617	-1.487988
34705		0.634048	-0.594197	-0.355840	-0.343933	-85.435418	-59.313016	-1.489055
34706		0.633999	-0.594260	-0.355800	-0.343957	-85.446120	-59.311379	-1.488827
34707		0.633951	-0.594305	-0.355800	-0.343967	-85.457978	-59.312389	-1.483169
34708		0.633968	-0.594286	-0.355848	-0.343920	-85.460534	-59.312793	-1.472820
34709		0.633988	-0.594258	-0.355889	-0.343890	-85.459307	-59.314009	-1.466937
34710		0.634022	-0.594210	-0.355936	-0.343861	-85.453833	-59.315871	-1.463121
34711		0.634011	-0.594205	-0.355916	-0.343910	-85.448987	-59.318307	-1.472348
34712		0.633981	-0.594229	-0.355861	-0.343981	-85.446430	-59.319417	-1.485701
34713		0.633930	-0.594289	-0.355774	-0.344062	-85.448611	-59.318327	-1.500055
34714		0.633887	-0.594350	-0.355685	-0.344128	-85.450992	-59.315803	-1.513057
34715		0.633845	-0.594401	-0.355594	-0.344211	-85.450270	-59.314508	-1.529648
34716		0.633826	-0.594428	-0.355510	-0.344284	-85.444407	-59.313030	-1.547511
34717		0.633795	-0.594449	-0.355481	-0.344336	-85.445043	-59.314834	-1.554777
34718		0.633766	-0.594456	-0.355476	-0.344384	-85.445506	-59.318719	-1.559636
34719		0.633763	-0.594424	-0.355510	-0.344409	-85.441619	-59.324270	-1.561305
34720		0.633760	-0.594391	-0.355534	-0.344446	-85.435994	-59.329797	-1.565954
34721		0.633801	-0.594317	-0.355595	-0.344435	-85.425367	-59.334645	-1.565535
34722		0.633864	-0.594235	-0.355662	-0.344392	-85.413717	-59.337017	-1.562069
34723		0.633853	-0.594230	-0.355642	-0.344441	-85.408859	-59.339450	-1.571306
34724		0.633793	-0.594281	-0.355555	-0.344553	-85.408375	-59.341252	-1.590301
34725		0.633735	-0.594342	-0.355462	-0.344652	-85.409682	-59.341254	-1.607429
34726		0.633632	-0.594447	-0.355316	-0.344811	-85.414367	-59.341546	-1.633267
34727		0.633566	-0.594488	-0.355228	-0.344950	-85.410889	-59.345646	-1.656666
34728		0.633517	-0.594509	-0.355177	-0.345057	-85.407704	-59.350341	-1.673452
34729		0.633498	-0.594499	-0.355162	-0.345125	-85.401895	-59.354925	-1.684712
34730		0.633524	-0.594434	-0.355213	-0.345137	-85.391787	-59.360863	-1.687055
34731		0.633531	-0.594399	-0.355233	-0.345164	-85.385047	-59.365150	-1.691743
34732		0.633550	-0.594332	-0.355270	-0.345205	-85.372147	-59.372345	-1.699857
34733		0.633557	-0.594308	-0.355287	-0.345217	-85.367994	-59.374985	-1.701957
34734		0.633563	-0.594278	-0.355323	-0.345221	-85.365147	-59.378757	-1.700687
34735		0.633524	-0.594282	-0.355302	-0.345306	-85.362220	-59.384360	-1.712582
34736		0.633464	-0.594307	-0.355270	-0.345407	-85.362710	-59.390415	-1.725064
34737		0.633408	-0.594333	-0.355215	-0.345522	-85.360309	-59.395515	-1.742442
34738		0.633365	-0.594325	-0.355192	-0.345637	-85.353483	-59.403604	-1.759661
34739		0.633348	-0.594279	-0.355185	-0.345755	-85.338587	-59.413420	-1.780409
34740		0.633339	-0.594239	-0.355157	-0.345870	-85.322143	-59.420855	-1.803421
34741		0.633349	-0.594191	-0.355161	-0.345931	-85.309066	-59.426611	-1.816512
34742		0.633341	-0.594142	-0.355179	-0.346010	-85.297761	-59.435396	-1.829054
34743		0.633307	-0.594126	-0.355190	-0.346086	-85.294182	-59.443373	-1.837615
34744		0.633234	-0.594150	-0.355160	-0.346210	-85.294720	-59.451666	-1.852117
34745		0.633216	-0.594131	-0.355179	-0.346258	-85.291628	-59.457757	-1.856797
34746		0.633191	-0.594104	-0.355192	-0.346335	-85.285416	-59.465841	-1.866816
34747		0.633197	-0.594044	-0.355232	-0.346385	-85.274609	-59.474183	-1.874318
34748		0.633180	-0.593999	-0.355260	-0.346465	-85.265650	-59.483938	-1.884794
34749		0.633170	-0.593948	-0.355299	-0.346531	-85.256867	-59.493581	-1.892837
34750		0.633138	-0.593928	-0.355286	-0.346639	-85.248079	-59.501946	-1.909566
34751		0.633112	-0.593900	-0.355306	-0.346712	-85.242744	-59.510482	-1.917976
34752		0.633071	-0.593885	-0.355280	-0.346840	-85.233143	-59.519447	-1.938369
34753		0.633052	-0.593864	-0.355269	-0.346922	-85.224636	-59.525674	-1.952318
34754		0.633005	-0.593867	-0.355221	-0.347052	-85.216912	-59.532648	-1.973663
34755		0.632971	-0.593875	-0.355181	-0.347140	-85.211935	-59.536710	-1.988727
34756		0.632904	-0.593896	-0.355139	-0.347270	-85.209948	-59.544404	-2.006192
34757		0.632913	-0.593848	-0.355143	-0.347331	-85.196796	-59.550161	-2.019361
34758		0.632898	-0.593818	-0.355137	-0.347416	-85.186534	-59.557126	-2.034253
34759		0.632916	-0.593776	-0.355167	-0.347423	-85.179746	-59.560607	-2.036136
34760		0.632861	-0.593794	-0.355156	-0.347504	-85.181907	-59.566920	-2.043771
34761		0.632837	-0.593799	-0.355177	-0.347518	-85.186074	-59.570224	-2.040917
34762		0.632785	-0.593825	-0.355164	-0.347583	-85.190163	-59.574858	-2.046151
34763		0.632763	-0.593830	-0.355168	-0.347610	-85.191870	-59.577692	-2.047416
34764		0.632692	-0.593866	-0.355144	-0.347702	-85.197031	-59.583785	-2.055539
34765		0.632667	-0.593881	-0.355131	-0.347736	-85.198412	-59.585581	-2.059329
34766		0.632592	-0.593901	-0.355116	-0.347852	-85.200182	-59.594751	-2.071019
34767		0.632581	-0.593874	-0.355151	-0.347883	-85.197865	-59.600831	-2.072202
34768		0.632520	-0.593892	-0.355119	-0.347997	-85.196269	-59.608012	-2.087256
34769		0.632529	-0.593859	-0.355153	-0.348002	-85.192404	-59.611721	-2.086888
34770		0.632488	-0.593877	-0.355134	-0.348063	-85.193789	-59.615473	-2.093784
34771		0.632521	-0.593845	-0.355172	-0.348019	-85.191407	-59.615150	-2.087475
34772		0.632554	-0.593817	-0.355212	-0.347969	-85.190092	-59.614335	-2.079800
34773		0.632599	-0.593790	-0.355240	-0.347903	-85.187891	-59.611084	-2.072115
34774		0.632637	-0.593785	-0.355213	-0.347870	-85.182883	-59.605453	-2.074161
34775		0.632622	-0.593810	-0.355184	-0.347885	-85.185310	-59.604055	-2.076674
34776		0.632586	-0.593864	-0.355126	-0.347918	-85.190713	-59.601490	-2.082068
34777		0.632544	-0.593916	-0.355065	-0.347966	-85.195303	-59.600090	-2.089502
34778		0.632524	-0.593948	-0.355023	-0.347991	-85.197427	-59.598277	-2.094366
34779		0.632529	-0.593950	-0.355008	-0.347995	-85.195606	-59.597206	-2.097188
34780		0.632533	-0.593962	-0.354998	-0.347976	-85.197679	-59.594510	-2.094990
34781		0.632549	-0.593985	-0.354976	-0.347930	-85.201201	-59.588279	-2.090455
34782		0.632517	-0.594044	-0.354960	-0.347903	-85.215166	-59.584519	-2.081195
34783		0.632505	-0.594081	-0.354970	-0.347852	-85.227298	-59.581032	-2.068377
34784		0.632502	-0.594089	-0.355011	-0.347802	-85.235954	-59.580473	-2.054980
34785		0.632537	-0.594053	-0.355073	-0.347737	-85.236442	-59.580605	-2.042774
34786		0.632573	-0.593990	-0.355153	-0.347697	-85.231638	-59.584558	-2.034537
34787		0.632606	-0.593921	-0.355243	-0.347663	-85.226743	-59.590098	-2.026041
34788		0.632613	-0.593878	-0.355287	-0.347679	-85.221510	-59.595776	-2.026689
34789		0.632603	-0.593874	-0.355298	-0.347693	-85.221978	-59.598106	-2.026761
34790		0.632595	-0.593867	-0.355297	-0.347722	-85.219368	-59.600558	-2.031236
34791		0.632586	-0.593872	-0.355285	-0.347740	-85.218715	-59.601066	-2.034503
34792		0.632585	-0.593866	-0.355283	-0.347755	-85.216649	-59.602176	-2.037322
34793		0.632592	-0.593856	-0.355282	-0.347759	-85.213885	-59.602441	-2.039303
34794		0.632604	-0.593834	-0.355306	-0.347751	-85.211462	-59.603976	-2.037889
34795		0.632605	-0.593815	-0.355334	-0.347753	-85.210608	-59.606843	-2.036007
34796		0.632583	-0.593830	-0.355352	-0.347750	-85.217231	-59.608349	-2.030373
34797		0.632577	-0.593831	-0.355392	-0.347719	-85.223601	-59.609469	-2.020156
34798		0.632588	-0.593816	-0.355439	-0.347677	-85.227076	-59.610251	-2.009843
34799		0.632590	-0.593815	-0.355484	-0.347628	-85.234335	-59.610279	-1.996833
34800		0.632595	-0.593829	-0.355495	-0.347582	-85.240407	-59.607267	-1.987895
34801		0.632597	-0.593853	-0.355489	-0.347544	-85.246279	-59.603374	-1.981376
34802		0.632574	-0.593899	-0.355475	-0.347522	-85.256790	-59.600077	-1.974497
34803		0.632526	-0.593963	-0.355463	-0.347511	-85.272658	-59.598139	-1.965276
34804		0.632500	-0.594002	-0.355467	-0.347490	-85.283741	-59.596710	-1.956577
34805		0.632481	-0.594023	-0.355469	-0.347485	-85.289824	-59.596542	-1.952533
34806		0.632480	-0.594004	-0.355521	-0.347466	-85.292731	-59.599928	-1.944327
34807		0.632499	-0.593978	-0.355566	-0.347430	-85.292794	-59.600888	-1.936766
34808		0.632509	-0.593959	-0.355595	-0.347415	-85.292141	-59.602402	-1.933098
34809		0.632497	-0.593963	-0.355616	-0.347408	-85.296426	-59.603846	-1.928111
34810		0.632463	-0.593992	-0.355626	-0.347410	-85.305715	-59.605050	-1.922088
34811		0.632403	-0.594041	-0.355628	-0.347435	-85.318805	-59.607684	-1.916836
34812		0.632352	-0.594101	-0.355611	-0.347442	-85.332315	-59.606792	-1.911393
34813		0.632322	-0.594116	-0.355650	-0.347432	-85.342385	-59.609703	-1.901117
34814		0.632291	-0.594128	-0.355675	-0.347440	-85.349341	-59.612963	-1.895666
34815		0.632293	-0.594081	-0.355749	-0.347443	-85.347361	-59.620338	-1.890630
34816		0.632299	-0.594021	-0.355820	-0.347462	-85.341515	-59.628804	-1.889524
34817		0.632290	-0.593953	-0.355884	-0.347528	-85.331743	-59.640885	-1.895955
34818		0.632281	-0.593891	-0.355935	-0.347599	-85.321703	-59.652103	-1.904102
34819		0.632241	-0.593852	-0.355976	-0.347695	-85.316141	-59.664665	-1.913119
34820		0.632207	-0.593823	-0.355998	-0.347785	-85.310472	-59.674834	-1.923130
34821		0.632171	-0.593787	-0.356037	-0.347871	-85.305379	-59.686321	-1.931141
34822		0.632155	-0.593748	-0.356062	-0.347943	-85.297622	-59.695134	-1.940356
34823		0.632137	-0.593725	-0.356078	-0.347997	-85.293236	-59.701557	-1.946759
34824		0.632110	-0.593709	-0.356106	-0.348045	-85.292340	-59.708620	-1.949506
34825		0.632082	-0.593700	-0.356133	-0.348083	-85.293438	-59.714659	-1.950264
34826		0.632051	-0.593683	-0.356163	-0.348137	-85.292747	-59.722416	-1.953204
34827		0.632023	-0.593655	-0.356201	-0.348198	-85.289876	-59.731456	-1.957506
34828		0.632009	-0.593590	-0.356253	-0.348280	-85.279201	-59.743900	-1.967031
34829		0.632004	-0.593499	-0.356336	-0.348360	-85.265813	-59.758960	-1.975279
34830		0.632006	-0.593422	-0.356382	-0.348441	-85.250707	-59.770566	-1.987785
34831		0.631990	-0.593358	-0.356400	-0.348560	-85.234571	-59.782814	-2.007157
34832		0.631958	-0.593328	-0.356394	-0.348675	-85.223993	-59.792607	-2.025096
34833		0.631910	-0.593330	-0.356381	-0.348773	-85.221233	-59.800099	-2.037491
34834		0.631885	-0.593322	-0.356376	-0.348837	-85.217579	-59.805355	-2.046251
34835		0.631863	-0.593316	-0.356384	-0.348878	-85.216653	-59.809848	-2.050152
34836		0.631835	-0.593317	-0.356402	-0.348907	-85.219435	-59.814251	-2.049713
34837		0.631796	-0.593333	-0.356452	-0.348901	-85.231146	-59.818729	-2.038041
34838		0.631777	-0.593330	-0.356492	-0.348899	-85.236207	-59.822417	-2.031441
34839		0.631774	-0.593304	-0.356563	-0.348876	-85.240271	-59.827276	-2.020491
34840		0.631760	-0.593287	-0.356624	-0.348868	-85.244759	-59.832442	-2.011655
34841		0.631739	-0.593274	-0.356670	-0.348882	-85.247959	-59.838151	-2.007160
34842		0.631712	-0.593276	-0.356698	-0.348899	-85.252376	-59.842462	-2.003880
34843		0.631649	-0.593303	-0.356696	-0.348969	-85.258550	-59.848705	-2.007306
34844		0.631584	-0.593361	-0.356674	-0.349009	-85.270498	-59.850324	-2.006365
34845		0.631479	-0.593461	-0.356614	-0.349091	-85.287547	-59.852159	-2.009829
34846		0.631393	-0.593538	-0.356602	-0.349126	-85.306325	-59.854464	-2.003626
34847		0.631326	-0.593604	-0.356585	-0.349154	-85.321269	-59.855483	-1.999252
34848		0.631272	-0.593655	-0.356608	-0.349142	-85.338463	-59.856821	-1.986201
34849		0.631238	-0.593658	-0.356684	-0.349121	-85.350972	-59.862310	-1.970163
34850		0.631239	-0.593633	-0.356780	-0.349065	-85.359243	-59.866569	-1.951359
34851		0.631232	-0.593595	-0.356888	-0.349031	-85.365706	-59.874000	-1.934687
34852		0.631209	-0.593582	-0.356985	-0.348995	-85.377042	-59.880244	-1.916088
34853		0.631194	-0.593582	-0.357036	-0.348970	-85.385083	-59.882905	-1.904442
34854		0.631143	-0.593620	-0.357064	-0.348969	-85.399649	-59.885726	-1.893441
34855		0.631046	-0.593701	-0.357051	-0.349019	-85.419122	-59.889315	-1.888300
34856		0.630950	-0.593802	-0.357010	-0.349064	-85.439763	-59.889593	-1.884509
34857		0.630845	-0.593892	-0.356985	-0.349125	-85.459686	-59.892922	-1.881236
34858		0.630775	-0.593943	-0.357000	-0.349152	-85.475370	-59.896959	-1.873457
34859		0.630732	-0.593939	-0.357049	-0.349184	-85.481467	-59.904737	-1.868746
34860		0.630714	-0.593889	-0.357130	-0.349218	-85.479588	-59.915612	-1.865992
34861		0.630714	-0.593810	-0.357234	-0.349246	-85.473548	-59.928103	-1.862917
34862		0.630726	-0.593733	-0.357338	-0.349250	-85.468042	-59.938296	-1.857283
34863		0.630694	-0.593704	-0.357408	-0.349285	-85.470206	-59.948263	-1.853222
34864		0.630645	-0.593730	-0.357434	-0.349303	-85.480969	-59.952565	-1.846426
34865		0.630540	-0.593836	-0.357412	-0.349335	-85.506118	-59.953638	-1.837106
34866		0.630440	-0.593958	-0.357360	-0.349360	-85.531249	-59.951166	-1.829647
34867		0.630358	-0.594049	-0.357355	-0.349360	-85.555185	-59.950896	-1.816242
34868		0.630349	-0.594043	-0.357387	-0.349353	-85.558627	-59.953413	-1.810720
34869		0.630391	-0.593954	-0.357477	-0.349336	-85.548233	-59.960394	-1.807049
34870		0.630457	-0.593815	-0.357588	-0.349340	-85.526954	-59.971266	-1.809924
34871		0.630501	-0.593696	-0.357675	-0.349373	-85.507431	-59.982452	-1.816604
34872		0.630471	-0.593653	-0.357695	-0.349481	-85.497154	-59.994037	-1.831465
34873		0.630405	-0.593665	-0.357652	-0.349623	-85.492220	-60.002703	-1.852023
34874		0.630286	-0.593756	-0.357537	-0.349802	-85.497399	-60.007960	-1.876705
34875		0.630166	-0.593860	-0.357426	-0.349954	-85.507207	-60.011079	-1.895880
34876		0.630065	-0.593978	-0.357329	-0.350034	-85.523869	-60.009356	-1.902729
34877		0.630000	-0.594048	-0.357282	-0.350081	-85.535111	-60.009142	-1.904957
34878		0.630002	-0.594036	-0.357311	-0.350067	-85.536547	-60.010726	-1.900270
34879		0.630037	-0.593978	-0.357409	-0.350003	-85.536088	-60.014281	-1.885571
34880		0.630079	-0.593905	-0.357513	-0.349946	-85.532750	-60.019064	-1.872557
34881		0.630100	-0.593845	-0.357596	-0.349925	-85.529194	-60.025113	-1.865164
34882		0.630092	-0.593827	-0.357647	-0.349918	-85.531946	-60.029426	-1.858406
34883		0.630069	-0.593837	-0.357657	-0.349931	-85.536251	-60.031675	-1.856255
34884		0.630018	-0.593892	-0.357610	-0.349979	-85.543362	-60.031584	-1.861069
34885		0.629992	-0.593942	-0.357589	-0.349963	-85.553916	-60.028132	-1.855306
34886		0.629987	-0.593992	-0.357562	-0.349913	-85.564301	-60.021230	-1.846796
34887		0.630000	-0.594031	-0.357559	-0.349827	-85.575505	-60.013184	-1.832122
34888		0.630009	-0.594089	-0.357563	-0.349708	-85.593295	-60.002985	-1.809894
34889		0.630024	-0.594143	-0.357574	-0.349578	-85.611395	-59.992360	-1.785725
34890		0.630061	-0.594186	-0.357586	-0.349427	-85.626559	-59.979951	-1.761142
34891		0.630093	-0.594245	-0.357581	-0.349272	-85.643960	-59.965608	-1.736356
34892		0.630128	-0.594285	-0.357586	-0.349136	-85.657308	-59.953891	-1.714828
34893		0.630164	-0.594328	-0.357590	-0.348993	-85.671192	-59.941478	-1.692594
34894		0.630211	-0.594372	-0.357547	-0.348878	-85.677926	-59.926923	-1.681279
34895		0.630245	-0.594450	-0.357484	-0.348749	-85.691201	-59.909269	-1.666547
34896		0.630257	-0.594553	-0.357383	-0.348653	-85.705258	-59.891035	-1.658151
34897		0.630254	-0.594673	-0.357271	-0.348570	-85.721943	-59.872848	-1.650367
34898		0.630266	-0.594771	-0.357168	-0.348487	-85.733907	-59.855426	-1.644590
34899		0.630324	-0.594824	-0.357082	-0.348380	-85.736584	-59.837502	-1.640240
34900		0.630381	-0.594869	-0.356988	-0.348296	-85.735527	-59.820828	-1.641062
34901		0.630453	-0.594891	-0.356900	-0.348218	-85.729236	-59.805249	-1.644880
34902		0.630531	-0.594893	-0.356848	-0.348126	-85.723094	-59.791896	-1.644080
34903		0.630596	-0.594887	-0.356800	-0.348068	-85.714859	-59.781921	-1.647460
34904		0.630670	-0.594870	-0.356755	-0.348010	-85.704176	-59.772213	-1.651949
34905		0.630746	-0.594836	-0.356724	-0.347962	-85.690766	-59.764733	-1.657633
34906		0.630805	-0.594820	-0.356691	-0.347917	-85.681896	-59.757401	-1.661383
34907		0.630862	-0.594806	-0.356644	-0.347885	-85.671465	-59.749882	-1.668439
34908		0.630932	-0.594766	-0.356621	-0.347850	-85.657846	-59.744349	-1.674804
34909		0.630999	-0.594732	-0.356601	-0.347806	-85.646064	-59.738421	-1.679102
34910		0.631091	-0.594692	-0.356569	-0.347741	-85.631134	-59.729168	-1.684199
34911		0.631204	-0.594628	-0.356556	-0.347660	-85.612723	-59.720428	-1.687954
34912		0.631312	-0.594588	-0.356530	-0.347560	-85.599204	-59.708668	-1.688272
34913		0.631404	-0.594566	-0.356493	-0.347466	-85.588976	-59.696574	-1.688204
34914		0.631492	-0.594558	-0.356465	-0.347350	-85.584002	-59.683298	-1.682211
34915		0.631577	-0.594541	-0.356457	-0.347232	-85.579609	-59.671838	-1.673938
34916		0.631677	-0.594484	-0.356489	-0.347115	-85.570295	-59.664208	-1.664966
34917		0.631804	-0.594388	-0.356550	-0.346986	-85.555069	-59.658235	-1.655764
34918		0.631952	-0.594252	-0.356659	-0.346837	-85.536474	-59.655050	-1.642119
34919		0.632135	-0.594069	-0.356789	-0.346681	-85.508366	-59.653275	-1.631456
34920		0.632317	-0.593909	-0.356892	-0.346518	-85.482423	-59.648130	-1.621281
34921		0.632481	-0.593778	-0.356964	-0.346371	-85.459641	-59.641513	-1.613505
34922		0.632620	-0.593714	-0.356960	-0.346230	-85.443540	-59.628262	-1.609264
34923		0.632743	-0.593691	-0.356902	-0.346104	-85.430202	-59.611192	-1.609745
34924		0.632878	-0.593650	-0.356856	-0.345975	-85.413953	-59.594936	-1.610557
34925		0.632981	-0.593633	-0.356799	-0.345875	-85.402213	-59.580238	-1.612546
34926		0.633106	-0.593571	-0.356784	-0.345767	-85.384511	-59.568941	-1.613509
34927		0.633234	-0.593472	-0.356794	-0.345693	-85.360150	-59.562983	-1.619332
34928		0.633391	-0.593343	-0.356801	-0.345619	-85.327538	-59.556677	-1.630146
34929		0.633528	-0.593235	-0.356807	-0.345548	-85.300267	-59.550517	-1.638207
34930		0.633642	-0.593165	-0.356756	-0.345512	-85.274378	-59.542085	-1.654052
34931		0.633718	-0.593148	-0.356684	-0.345476	-85.259594	-59.531743	-1.665343
34932		0.633779	-0.593184	-0.356542	-0.345449	-85.248574	-59.515560	-1.681594
34933		0.633813	-0.593251	-0.356408	-0.345410	-85.247170	-59.499130	-1.690445
34934		0.633858	-0.593305	-0.356279	-0.345366	-85.243377	-59.482728	-1.699685
34935		0.633927	-0.593312	-0.356225	-0.345284	-85.238330	-59.470019	-1.699287
34936		0.634031	-0.593280	-0.356208	-0.345168	-85.228541	-59.457764	-1.695073
34937		0.634151	-0.593213	-0.356229	-0.345039	-85.215274	-59.448079	-1.688249
34938		0.634266	-0.593141	-0.356254	-0.344925	-85.201372	-59.440110	-1.682729
34939		0.634340	-0.593093	-0.356288	-0.344837	-85.194573	-59.435349	-1.674967
34940		0.634412	-0.593072	-0.356270	-0.344758	-85.187299	-59.426477	-1.673055
34941		0.634475	-0.593050	-0.356283	-0.344668	-85.184396	-59.419522	-1.664681
34942		0.634510	-0.593052	-0.356292	-0.344591	-85.187185	-59.413525	-1.654836
34943		0.634579	-0.593034	-0.356317	-0.344469	-85.187667	-59.404882	-1.640330
34944		0.634656	-0.593007	-0.356353	-0.344335	-85.187513	-59.396359	-1.624161
34945		0.634730	-0.592982	-0.356410	-0.344182	-85.191245	-59.388142	-1.601991
34946		0.634810	-0.592942	-0.356479	-0.344034	-85.192564	-59.381396	-1.580602
34947		0.634896	-0.592903	-0.356537	-0.343881	-85.192519	-59.373261	-1.560577
34948		0.634989	-0.592856	-0.356613	-0.343711	-85.193386	-59.365336	-1.536748
34949		0.635051	-0.592861	-0.356625	-0.343577	-85.198123	-59.354478	-1.519885
34950		0.635089	-0.592885	-0.356640	-0.343449	-85.208285	-59.344452	-1.500290
34951		0.635100	-0.592968	-0.356594	-0.343332	-85.225377	-59.329644	-1.483105
34952		0.635103	-0.593055	-0.356554	-0.343219	-85.244073	-59.315712	-1.465048
34953		0.635107	-0.593141	-0.356533	-0.343085	-85.265629	-59.301836	-1.441442
34954		0.635143	-0.593197	-0.356527	-0.342927	-85.281737	-59.287135	-1.417403
34955		0.635167	-0.593247	-0.356568	-0.342756	-85.303023	-59.275852	-1.384985
34956		0.635187	-0.593303	-0.356594	-0.342593	-85.323931	-59.263923	-1.354836
34957		0.635217	-0.593324	-0.356658	-0.342434	-85.340859	-59.255907	-1.324023
34958		0.635246	-0.593335	-0.356705	-0.342311	-85.352353	-59.249522	-1.301382
34959		0.635279	-0.593324	-0.356764	-0.342209	-85.359152	-59.246022	-1.282363
34960		0.635307	-0.593306	-0.356798	-0.342153	-85.360128	-59.244190	-1.273296
34961		0.635286	-0.593321	-0.356826	-0.342136	-85.368531	-59.245500	-1.264435
34962		0.635252	-0.593361	-0.356809	-0.342147	-85.376665	-59.244911	-1.262310
34963		0.635211	-0.593413	-0.356776	-0.342167	-85.385293	-59.243622	-1.262305
34964		0.635198	-0.593446	-0.356759	-0.342152	-85.391814	-59.240672	-1.258673
34965		0.635181	-0.593471	-0.356747	-0.342154	-85.396632	-59.239714	-1.257143
34966		0.635184	-0.593473	-0.356739	-0.342152	-85.395979	-59.238797	-1.258084
34967		0.635224	-0.593438	-0.356752	-0.342125	-85.389086	-59.237551	-1.258175
34968		0.635261	-0.593397	-0.356752	-0.342128	-85.377975	-59.237679	-1.264838
34969		0.635280	-0.593363	-0.356728	-0.342175	-85.364842	-59.239570	-1.279007
34970		0.635273	-0.593354	-0.356676	-0.342258	-85.353782	-59.241917	-1.297978
34971		0.635217	-0.593377	-0.356588	-0.342416	-85.344861	-59.247529	-1.326280
34972		0.635123	-0.593432	-0.356491	-0.342594	-85.343344	-59.254255	-1.353048
34973		0.635024	-0.593476	-0.356414	-0.342782	-85.341348	-59.263696	-1.379427
34974		0.634951	-0.593488	-0.356369	-0.342944	-85.335843	-59.273928	-1.402360
34975		0.634934	-0.593420	-0.356369	-0.343093	-85.316023	-59.287155	-1.428101
34976		0.634941	-0.593326	-0.356409	-0.343201	-85.295189	-59.300570	-1.447075
34977		0.634935	-0.593236	-0.356464	-0.343310	-85.278068	-59.315528	-1.462536
34978		0.634928	-0.593144	-0.356523	-0.343420	-85.260839	-59.330961	-1.477824
34979		0.634921	-0.593041	-0.356595	-0.343537	-85.242314	-59.348329	-1.493440
34980		0.634923	-0.592921	-0.356661	-0.343672	-85.218262	-59.366569	-1.514492
34981		0.634931	-0.592809	-0.356707	-0.343802	-85.193535	-59.382498	-1.537176
34982		0.634938	-0.592713	-0.356716	-0.343946	-85.167218	-59.396037	-1.565518
34983		0.634941	-0.592630	-0.356722	-0.344076	-85.144337	-59.408220	-1.590763
34984		0.634947	-0.592559	-0.356699	-0.344212	-85.120276	-59.417975	-1.619821
34985		0.634959	-0.592476	-0.356695	-0.344337	-85.095770	-59.428592	-1.646435
34986		0.634989	-0.592375	-0.356717	-0.344432	-85.070722	-59.439102	-1.668106
34987		0.635033	-0.592250	-0.356768	-0.344514	-85.043517	-59.451042	-1.687132
34988		0.635092	-0.592123	-0.356837	-0.344552	-85.019240	-59.460922	-1.698687
34989		0.635138	-0.592013	-0.356901	-0.344590	-84.998794	-59.470298	-1.708332
34990		0.635198	-0.591908	-0.356946	-0.344611	-84.977199	-59.476386	-1.718743
34991		0.635242	-0.591857	-0.356968	-0.344597	-84.966837	-59.477052	-1.721346
34992		0.635291	-0.591826	-0.356963	-0.344564	-84.958349	-59.473601	-1.723419
34993		0.635364	-0.591788	-0.356963	-0.344496	-84.948760	-59.467337	-1.722288
34994		0.635446	-0.591751	-0.356962	-0.344409	-84.940063	-59.459273	-1.718763
34995		0.635546	-0.591710	-0.356973	-0.344283	-84.932314	-59.448961	-1.709913
34996		0.635678	-0.591634	-0.357008	-0.344135	-84.919034	-59.438848	-1.699819
34997		0.635799	-0.591563	-0.357025	-0.344013	-84.904538	-59.429474	-1.694578
34998		0.635966	-0.591438	-0.357062	-0.343882	-84.878207	-59.420959	-1.693575
34999		0.636135	-0.591322	-0.357067	-0.343763	-84.849573	-59.410561	-1.697736
35000		0.636307	-0.591212	-0.357053	-0.343650	-84.819745	-59.398704	-1.704881
35001		0.636447	-0.591135	-0.357012	-0.343566	-84.794210	-59.386945	-1.714855
35002		0.636568	-0.591095	-0.356947	-0.343477	-84.775513	-59.372436	-1.722412
35003		0.636676	-0.591064	-0.356885	-0.343394	-84.759312	-59.358900	-1.729056
35004		0.636824	-0.591020	-0.356828	-0.343255	-84.741181	-59.340692	-1.730624
35005		0.636984	-0.590938	-0.356790	-0.343138	-84.715397	-59.326270	-1.737280
35006		0.637156	-0.590860	-0.356765	-0.342979	-84.693393	-59.309407	-1.736343
35007		0.637318	-0.590791	-0.356737	-0.342826	-84.673137	-59.292734	-1.735251
35008		0.637458	-0.590742	-0.356685	-0.342705	-84.654121	-59.276679	-1.738835
35009		0.637570	-0.590696	-0.356662	-0.342601	-84.639892	-59.264940	-1.738653
35010		0.637674	-0.590644	-0.356651	-0.342508	-84.625890	-59.255398	-1.738498
35011		0.637771	-0.590567	-0.356675	-0.342436	-84.609965	-59.251116	-1.738313
35012		0.637888	-0.590461	-0.356714	-0.342360	-84.588478	-59.247839	-1.739736
35013		0.637982	-0.590334	-0.356780	-0.342335	-84.564585	-59.251677	-1.745021
35014		0.638075	-0.590224	-0.356827	-0.342302	-84.542863	-59.253191	-1.749979
35015		0.638150	-0.590120	-0.356880	-0.342287	-84.523175	-59.256684	-1.755027
35016		0.638176	-0.590059	-0.356918	-0.342303	-84.512145	-59.261697	-1.759598
35017		0.638176	-0.590023	-0.356960	-0.342320	-84.508618	-59.267264	-1.759537
35018		0.638187	-0.589968	-0.357020	-0.342332	-84.502437	-59.274124	-1.759044
35019		0.638214	-0.589873	-0.357137	-0.342324	-84.494343	-59.284532	-1.752533
35020		0.638274	-0.589740	-0.357275	-0.342298	-84.479455	-59.295462	-1.746335
35021		0.638309	-0.589575	-0.357460	-0.342324	-84.461977	-59.315601	-1.742579
35022		0.638340	-0.589410	-0.357641	-0.342361	-84.444028	-59.336240	-1.740600
35023		0.638356	-0.589234	-0.357852	-0.342413	-84.427076	-59.361145	-1.736827
35024		0.638362	-0.589066	-0.358064	-0.342470	-84.412494	-59.386671	-1.732102
35025		0.638329	-0.588951	-0.358259	-0.342525	-84.409403	-59.410510	-1.722251
35026		0.638277	-0.588884	-0.358405	-0.342584	-84.412090	-59.429966	-1.713610
35027		0.638207	-0.588855	-0.358536	-0.342628	-84.422878	-59.446641	-1.700322
35028		0.638125	-0.588859	-0.358642	-0.342662	-84.438875	-59.460180	-1.685191
35029		0.638058	-0.588853	-0.358732	-0.342702	-84.449971	-59.472611	-1.674924
35030		0.638033	-0.588778	-0.358874	-0.342730	-84.450286	-59.488899	-1.665054
35031		0.638001	-0.588696	-0.359041	-0.342755	-84.452598	-59.507325	-1.651455
35032		0.637977	-0.588602	-0.359177	-0.342818	-84.446499	-59.526151	-1.649236
35033		0.637937	-0.588522	-0.359311	-0.342890	-84.443786	-59.545493	-1.646041
35034		0.637892	-0.588463	-0.359420	-0.342963	-84.442833	-59.562566	-1.644229
35035		0.637839	-0.588435	-0.359500	-0.343024	-84.446376	-59.575952	-1.641123
35036		0.637796	-0.588427	-0.359550	-0.343065	-84.450971	-59.584496	-1.638175
35037		0.637774	-0.588425	-0.359592	-0.343064	-84.456739	-59.588545	-1.631118
35038		0.637767	-0.588438	-0.359608	-0.343041	-84.462682	-59.588000	-1.624028
35039		0.637788	-0.588434	-0.359628	-0.342987	-84.465478	-59.585205	-1.615331
35040		0.637798	-0.588440	-0.359632	-0.342953	-84.468207	-59.582538	-1.610049
35041		0.637792	-0.588479	-0.359592	-0.342940	-84.472861	-59.577604	-1.609686
35042		0.637769	-0.588548	-0.359503	-0.342957	-84.477955	-59.570484	-1.616246
35043		0.637720	-0.588653	-0.359384	-0.342993	-84.487904	-59.562285	-1.624622
35044		0.637687	-0.588759	-0.359222	-0.343042	-84.491668	-59.550964	-1.641497
35045		0.637649	-0.588883	-0.359065	-0.343063	-84.501508	-59.537734	-1.651808
35046		0.637618	-0.588999	-0.358900	-0.343095	-84.507857	-59.524664	-1.665695
35047		0.637587	-0.589112	-0.358753	-0.343112	-84.515982	-59.511999	-1.675795
35048		0.637570	-0.589199	-0.358617	-0.343138	-84.518819	-59.501184	-1.688703
35049		0.637550	-0.589285	-0.358490	-0.343158	-84.523038	-59.490718	-1.699407
35050		0.637517	-0.589372	-0.358387	-0.343179	-84.530756	-59.482646	-1.706028
35051		0.637499	-0.589457	-0.358288	-0.343170	-84.539115	-59.472347	-1.709132
35052		0.637462	-0.589570	-0.358205	-0.343130	-84.557557	-59.460957	-1.701971
35053		0.637423	-0.589668	-0.358144	-0.343098	-84.575392	-59.452303	-1.694030
35054		0.637414	-0.589748	-0.358083	-0.343042	-84.588575	-59.441480	-1.686298
35055		0.637403	-0.589794	-0.358069	-0.342996	-84.599470	-59.436133	-1.676775
35056		0.637399	-0.589818	-0.358075	-0.342956	-84.607200	-59.433208	-1.668021
35057		0.637381	-0.589842	-0.358079	-0.342945	-84.614483	-59.432716	-1.662366
35058		0.637334	-0.589878	-0.358072	-0.342978	-84.622411	-59.435052	-1.661722
35059		0.637269	-0.589916	-0.358083	-0.343021	-84.633604	-59.440063	-1.658562
35060		0.637221	-0.589940	-0.358095	-0.343057	-84.641387	-59.444593	-1.656560
35061		0.637190	-0.589925	-0.358149	-0.343083	-84.644870	-59.452136	-1.652462
35062		0.637197	-0.589872	-0.358218	-0.343091	-84.640729	-59.459435	-1.649462
35063		0.637191	-0.589845	-0.358275	-0.343089	-84.641797	-59.464896	-1.643679
35064		0.637175	-0.589843	-0.358330	-0.343065	-84.649577	-59.468018	-1.632015
35065		0.637142	-0.589878	-0.358347	-0.343047	-84.661836	-59.468208	-1.621769
35066		0.637105	-0.589934	-0.358349	-0.343017	-84.677487	-59.465864	-1.609662
35067		0.637089	-0.589977	-0.358354	-0.342968	-84.690365	-59.462052	-1.597035
35068		0.637089	-0.589997	-0.358368	-0.342918	-84.698486	-59.459062	-1.586318
35069		0.637109	-0.589982	-0.358409	-0.342866	-84.701123	-59.458374	-1.576115
35070		0.637120	-0.589985	-0.358410	-0.342838	-84.702519	-59.455990	-1.572411
35071		0.637106	-0.589989	-0.358420	-0.342846	-84.705091	-59.457721	-1.570920
35072		0.637092	-0.590009	-0.358392	-0.342868	-84.706022	-59.457007	-1.574919
35073		0.637057	-0.590053	-0.358344	-0.342906	-84.710066	-59.455817	-1.580638
35074		0.637029	-0.590110	-0.358281	-0.342926	-84.715831	-59.451521	-1.584840
35075		0.636998	-0.590173	-0.358233	-0.342926	-84.725461	-59.447014	-1.583595
35076		0.636976	-0.590227	-0.358198	-0.342911	-84.735027	-59.442235	-1.579728
35077		0.636947	-0.590285	-0.358202	-0.342861	-84.751657	-59.438333	-1.564982
35078		0.636963	-0.590292	-0.358231	-0.342788	-84.758948	-59.434735	-1.551121
35079		0.636984	-0.590281	-0.358289	-0.342707	-84.765772	-59.433137	-1.534102
35080		0.637038	-0.590225	-0.358381	-0.342608	-84.765575	-59.433137	-1.516423
35081		0.637105	-0.590159	-0.358451	-0.342525	-84.759385	-59.432352	-1.505592
35082		0.637165	-0.590086	-0.358512	-0.342474	-84.749708	-59.433642	-1.500696
35083		0.637197	-0.590044	-0.358527	-0.342472	-84.740590	-59.434830	-1.504486
35084		0.637164	-0.590079	-0.358477	-0.342525	-84.741898	-59.434720	-1.513313
35085		0.637101	-0.590144	-0.358423	-0.342586	-84.750480	-59.435031	-1.519140
35086		0.637038	-0.590216	-0.358338	-0.342669	-84.756080	-59.434328	-1.531552
35087		0.636994	-0.590252	-0.358308	-0.342720	-84.760385	-59.436049	-1.536849
35088		0.637014	-0.590218	-0.358323	-0.342724	-84.753650	-59.437802	-1.539708
35089		0.637037	-0.590167	-0.358383	-0.342707	-84.748931	-59.442053	-1.535480
35090		0.637054	-0.590119	-0.358457	-0.342681	-84.747480	-59.446891	-1.527150
35091		0.637043	-0.590113	-0.358513	-0.342653	-84.754536	-59.449818	-1.515504
35092		0.637008	-0.590132	-0.358551	-0.342645	-84.765291	-59.452841	-1.505220
35093		0.636969	-0.590148	-0.358600	-0.342639	-84.776896	-59.457267	-1.493670
35094		0.636944	-0.590173	-0.358617	-0.342625	-84.786089	-59.457734	-1.485554
35095		0.636927	-0.590182	-0.358650	-0.342607	-84.793657	-59.459331	-1.476567
35096		0.636897	-0.590203	-0.358664	-0.342613	-84.801177	-59.461274	-1.471629
35097		0.636849	-0.590229	-0.358673	-0.342647	-84.809097	-59.465279	-1.469563
35098		0.636786	-0.590260	-0.358687	-0.342694	-84.818833	-59.470993	-1.467454
35099		0.636713	-0.590285	-0.358710	-0.342764	-84.827807	-59.479494	-1.467184
35100		0.636680	-0.590294	-0.358734	-0.342785	-84.833576	-59.483729	-1.463792
35101		0.636659	-0.590279	-0.358776	-0.342806	-84.835516	-59.489709	-1.460976
35102		0.636656	-0.590261	-0.358827	-0.342789	-84.838379	-59.493168	-1.453219
35103		0.636655	-0.590233	-0.358879	-0.342785	-84.838688	-59.497844	-1.448062
35104		0.636649	-0.590215	-0.358919	-0.342783	-84.839840	-59.501616	-1.443683
35105		0.636622	-0.590215	-0.358939	-0.342814	-84.842284	-59.506270	-1.443535
35106		0.636590	-0.590212	-0.358969	-0.342847	-84.845336	-59.512172	-1.442419
35107		0.636537	-0.590213	-0.359004	-0.342907	-84.850102	-59.521024	-1.442383
35108		0.636486	-0.590217	-0.359044	-0.342954	-84.856462	-59.529093	-1.439857
35109		0.636433	-0.590216	-0.359076	-0.343020	-84.859965	-59.538243	-1.441499
35110		0.636397	-0.590222	-0.359078	-0.343075	-84.861008	-59.543298	-1.446151
35111		0.636363	-0.590220	-0.359089	-0.343130	-84.861309	-59.549341	-1.450483
35112		0.636341	-0.590213	-0.359082	-0.343189	-84.857847	-59.553927	-1.458799
35113		0.636303	-0.590217	-0.359088	-0.343246	-84.859001	-59.559687	-1.463239
35114		0.636288	-0.590199	-0.359100	-0.343292	-84.855294	-59.564829	-1.468775
35115		0.636267	-0.590191	-0.359104	-0.343340	-84.853133	-59.569600	-1.474350
35116		0.636270	-0.590157	-0.359120	-0.343377	-84.845838	-59.574386	-1.480731
35117		0.636254	-0.590146	-0.359116	-0.343429	-84.841606	-59.578677	-1.488667
35118		0.636250	-0.590122	-0.359142	-0.343453	-84.838438	-59.583284	-1.490565
35119		0.636246	-0.590110	-0.359138	-0.343485	-84.834284	-59.585707	-1.496374
35120		0.636246	-0.590084	-0.359140	-0.343526	-84.827102	-59.589563	-1.504378
35121		0.636252	-0.590061	-0.359129	-0.343567	-84.818750	-59.592086	-1.514128
35122		0.636260	-0.590024	-0.359151	-0.343592	-84.811782	-59.596419	-1.518659
35123		0.636263	-0.589995	-0.359167	-0.343621	-84.805853	-59.600463	-1.523485
35124		0.636305	-0.589926	-0.359187	-0.343640	-84.790170	-59.604045	-1.532508
35125		0.636336	-0.589864	-0.359212	-0.343661	-84.777086	-59.608242	-1.539844
35126		0.636386	-0.589805	-0.359199	-0.343683	-84.759015	-59.608822	-1.553542
35127		0.636400	-0.589776	-0.359188	-0.343720	-84.748995	-59.610844	-1.563869
35128		0.636409	-0.589758	-0.359162	-0.343762	-84.739710	-59.612122	-1.575618
35129		0.636415	-0.589740	-0.359141	-0.343802	-84.731400	-59.613578	-1.586157
35130		0.636432	-0.589712	-0.359134	-0.343827	-84.722305	-59.615038	-1.594436
35131		0.636469	-0.589658	-0.359147	-0.343837	-84.709740	-59.617095	-1.601542
35132		0.636527	-0.589610	-0.359141	-0.343819	-84.696202	-59.614793	-1.607960
35133		0.636567	-0.589570	-0.359148	-0.343805	-84.686710	-59.614121	-1.611449
35134		0.636605	-0.589534	-0.359159	-0.343786	-84.678994	-59.613342	-1.612962
35135		0.636661	-0.589498	-0.359167	-0.343734	-84.671337	-59.609433	-1.611607
35136		0.636716	-0.589469	-0.359187	-0.343662	-84.667471	-59.604910	-1.604961
35137		0.636787	-0.589434	-0.359210	-0.343567	-84.662859	-59.598527	-1.596298
35138		0.636878	-0.589386	-0.359237	-0.343451	-84.655749	-59.590652	-1.586451
35139		0.636975	-0.589342	-0.359251	-0.343334	-84.647502	-59.581428	-1.578568
35140		0.637074	-0.589275	-0.359289	-0.343225	-84.636843	-59.575254	-1.570539
35141		0.637177	-0.589221	-0.359315	-0.343098	-84.628151	-59.566300	-1.560753
35142		0.637267	-0.589170	-0.359323	-0.343011	-84.616934	-59.559185	-1.557790
35143		0.637356	-0.589126	-0.359331	-0.342913	-84.607803	-59.551052	-1.552702
35144		0.637416	-0.589108	-0.359324	-0.342839	-84.602886	-59.543709	-1.548926
35145		0.637463	-0.589112	-0.359294	-0.342777	-84.600517	-59.535183	-1.546824
35146		0.637506	-0.589132	-0.359246	-0.342713	-84.599468	-59.524834	-1.545412
35147		0.637532	-0.589173	-0.359201	-0.342640	-84.605176	-59.514007	-1.538793
35148		0.637594	-0.589175	-0.359177	-0.342547	-84.603412	-59.503336	-1.532798
35149		0.637651	-0.589167	-0.359168	-0.342465	-84.601005	-59.495065	-1.527009
35150		0.637714	-0.589138	-0.359168	-0.342395	-84.594520	-59.488788	-1.523727
35151		0.637776	-0.589112	-0.359195	-0.342298	-84.592813	-59.482610	-1.512810
35152		0.637840	-0.589061	-0.359247	-0.342213	-84.587952	-59.480059	-1.502680
35153		0.637899	-0.589017	-0.359304	-0.342118	-84.586065	-59.477062	-1.489439
35154		0.637960	-0.588968	-0.359355	-0.342035	-84.581684	-59.474506	-1.479180
35155		0.638008	-0.588931	-0.359402	-0.341960	-84.579771	-59.472316	-1.468850
35156		0.638039	-0.588945	-0.359400	-0.341881	-84.584235	-59.465056	-1.458669
35157		0.638047	-0.588976	-0.359381	-0.341832	-84.590513	-59.458991	-1.451989
35158		0.638076	-0.588976	-0.359392	-0.341764	-84.593205	-59.453997	-1.442779
35159		0.638118	-0.588954	-0.359416	-0.341699	-84.591790	-59.450478	-1.435124
35160		0.638159	-0.588936	-0.359427	-0.341644	-84.589243	-59.446488	-1.430159
35161		0.638184	-0.588930	-0.359411	-0.341622	-84.585783	-59.443039	-1.431449
35162		0.638169	-0.588972	-0.359353	-0.341640	-84.588059	-59.439069	-1.436988
35163		0.638142	-0.589033	-0.359269	-0.341674	-84.591447	-59.433907	-1.445747
35164		0.638114	-0.589098	-0.359183	-0.341705	-84.595712	-59.428479	-1.453957
35165		0.638127	-0.589106	-0.359119	-0.341732	-84.588156	-59.424620	-1.466531
35166		0.638163	-0.589069	-0.359119	-0.341730	-84.578274	-59.424314	-1.471983
35167		0.638198	-0.588982	-0.359160	-0.341771	-84.560485	-59.431803	-1.482633
35168		0.638239	-0.588863	-0.359248	-0.341808	-84.541148	-59.443486	-1.489528
35169		0.638282	-0.588709	-0.359392	-0.341842	-84.520714	-59.460289	-1.491883
35170		0.638359	-0.588529	-0.359550	-0.341840	-84.496208	-59.475255	-1.491683
35171		0.638429	-0.588372	-0.359706	-0.341816	-84.477598	-59.488021	-1.486299
35172		0.638503	-0.588255	-0.359832	-0.341747	-84.465947	-59.494026	-1.475048
35173		0.638543	-0.588214	-0.359914	-0.341656	-84.468513	-59.493850	-1.457439
35174		0.638576	-0.588218	-0.359923	-0.341578	-84.472036	-59.487811	-1.446883
35175		0.638560	-0.588282	-0.359890	-0.341535	-84.484650	-59.480811	-1.438392
35176		0.638513	-0.588378	-0.359840	-0.341508	-84.503449	-59.473735	-1.429359
35177		0.638460	-0.588475	-0.359792	-0.341491	-84.522303	-59.467662	-1.421215
35178		0.638429	-0.588553	-0.359750	-0.341459	-84.537438	-59.460943	-1.413076
35179		0.638388	-0.588637	-0.359706	-0.341436	-84.553778	-59.454658	-1.405389
35180		0.638338	-0.588735	-0.359669	-0.341399	-84.575069	-59.448060	-1.392861
35181		0.638294	-0.588847	-0.359640	-0.341320	-84.601552	-59.438331	-1.372524
35182		0.638264	-0.588950	-0.359639	-0.341200	-84.630579	-59.427723	-1.344203
35183		0.638211	-0.589041	-0.359659	-0.341119	-84.658874	-59.422699	-1.318427
35184		0.638213	-0.589076	-0.359733	-0.340976	-84.681306	-59.417229	-1.285038
35185		0.638208	-0.589112	-0.359823	-0.340829	-84.706121	-59.413028	-1.248542
35186		0.638206	-0.589157	-0.359894	-0.340680	-84.730601	-59.406675	-1.213722
35187		0.638185	-0.589211	-0.359975	-0.340542	-84.758751	-59.402382	-1.176906
35188		0.638184	-0.589262	-0.360048	-0.340377	-84.785440	-59.394884	-1.139166
35189		0.638180	-0.589312	-0.360121	-0.340222	-84.811568	-59.388232	-1.102594
35190		0.638169	-0.589366	-0.360162	-0.340104	-84.833782	-59.381840	-1.074734
35191		0.638151	-0.589423	-0.360214	-0.339985	-84.858212	-59.376300	-1.044551
35192		0.638126	-0.589484	-0.360235	-0.339904	-84.878537	-59.371285	-1.023219
35193		0.638124	-0.589527	-0.360254	-0.339811	-84.894259	-59.364920	-1.003445
35194		0.638157	-0.589532	-0.360269	-0.339725	-84.898995	-59.358653	-0.990995
35195		0.638202	-0.589515	-0.360294	-0.339643	-84.899226	-59.353751	-0.980702
35196		0.638236	-0.589479	-0.360354	-0.339579	-84.899282	-59.353849	-0.969114
35197		0.638278	-0.589436	-0.360416	-0.339508	-84.898081	-59.353484	-0.957335
35198		0.638282	-0.589403	-0.360516	-0.339453	-84.904673	-59.358278	-0.939320
35199		0.638305	-0.589344	-0.360614	-0.339408	-84.904099	-59.363733	-0.926603
35200		0.638364	-0.589260	-0.360712	-0.339339	-84.897278	-59.367065	-0.915031
35201		0.638399	-0.589199	-0.360779	-0.339309	-84.891371	-59.370820	-0.909475
35202		0.638419	-0.589157	-0.360829	-0.339290	-84.887812	-59.373939	-0.905284
35203		0.638404	-0.589145	-0.360853	-0.339314	-84.887786	-59.378374	-0.905554
35204		0.638388	-0.589125	-0.360864	-0.339367	-84.883397	-59.384157	-0.912279
35205		0.638410	-0.589038	-0.360921	-0.339417	-84.868150	-59.394033	-0.920772
35206		0.638440	-0.588928	-0.360995	-0.339472	-84.849065	-59.406059	-0.930470
35207		0.638474	-0.588798	-0.361098	-0.339523	-84.829018	-59.420553	-0.937821
35208		0.638489	-0.588666	-0.361213	-0.339603	-84.809751	-59.438737	-0.946508
35209		0.638514	-0.588525	-0.361330	-0.339675	-84.788727	-59.456441	-0.955096
35210		0.638543	-0.588395	-0.361447	-0.339722	-84.770783	-59.471846	-0.959623
35211		0.638527	-0.588306	-0.361544	-0.339800	-84.760666	-59.488213	-0.964437
35212		0.638518	-0.588226	-0.361642	-0.339853	-84.753065	-59.502401	-0.965344
35213		0.638510	-0.588146	-0.361738	-0.339905	-84.745110	-59.516315	-0.966478
35214		0.638501	-0.588067	-0.361844	-0.339945	-84.739439	-59.530173	-0.964228
35215		0.638512	-0.587970	-0.361963	-0.339966	-84.731060	-59.543551	-0.960541
35216		0.638545	-0.587871	-0.362076	-0.339954	-84.721655	-59.553433	-0.954697
35217		0.638572	-0.587787	-0.362190	-0.339929	-84.716366	-59.562207	-0.945304
35218		0.638599	-0.587718	-0.362282	-0.339897	-84.712289	-59.568331	-0.936305
35219		0.638639	-0.587655	-0.362372	-0.339835	-84.709723	-59.571458	-0.923791
35220		0.638699	-0.587594	-0.362452	-0.339744	-84.706762	-59.571028	-0.909429
35221		0.638756	-0.587550	-0.362525	-0.339635	-84.707330	-59.568491	-0.891999
35222		0.638826	-0.587530	-0.362561	-0.339498	-84.709436	-59.559763	-0.874123
35223		0.638891	-0.587512	-0.362623	-0.339341	-84.716048	-59.551748	-0.849539
35224		0.638968	-0.587495	-0.362664	-0.339182	-84.719802	-59.541587	-0.828171
35225		0.639047	-0.587493	-0.362695	-0.339002	-84.726573	-59.528524	-0.803862
35226		0.639114	-0.587513	-0.362686	-0.338853	-84.732534	-59.514317	-0.786664
35227		0.639183	-0.587550	-0.362648	-0.338697	-84.739048	-59.496776	-0.771063
35228		0.639239	-0.587638	-0.362552	-0.338543	-84.750195	-59.473674	-0.758134
35229		0.639246	-0.587780	-0.362421	-0.338425	-84.769885	-59.450508	-0.747021
35230		0.639254	-0.587946	-0.362259	-0.338293	-84.791809	-59.423133	-0.735937
35231		0.639300	-0.588083	-0.362140	-0.338097	-84.813254	-59.394043	-0.715056
35232		0.639349	-0.588216	-0.362027	-0.337890	-84.834839	-59.364826	-0.692516
35233		0.639431	-0.588303	-0.361996	-0.337618	-84.856877	-59.337511	-0.656213
35234		0.639549	-0.588355	-0.362013	-0.337286	-84.877603	-59.309600	-0.610458
35235		0.639634	-0.588431	-0.362027	-0.336977	-84.904020	-59.283440	-0.564053
35236		0.639700	-0.588516	-0.362034	-0.336696	-84.931249	-59.259194	-0.520533
35237		0.639765	-0.588588	-0.362052	-0.336428	-84.956645	-59.237038	-0.478304
35238		0.639834	-0.588664	-0.362084	-0.336130	-84.985316	-59.213611	-0.430174
35239		0.639885	-0.588760	-0.362066	-0.335881	-85.011528	-59.189840	-0.392654
35240		0.639911	-0.588870	-0.362039	-0.335670	-85.039142	-59.168324	-0.358841
35241		0.639966	-0.588961	-0.362026	-0.335419	-85.064417	-59.144826	-0.321277
35242		0.640035	-0.589025	-0.362027	-0.335173	-85.084805	-59.122985	-0.285622
35243		0.640086	-0.589110	-0.362014	-0.334939	-85.108325	-59.100859	-0.250774
35244		0.640128	-0.589183	-0.362000	-0.334747	-85.127728	-59.082366	-0.222396
35245		0.640177	-0.589223	-0.362034	-0.334546	-85.146063	-59.067812	-0.189407
35246		0.640227	-0.589247	-0.362070	-0.334369	-85.159791	-59.055571	-0.161270
35247		0.640314	-0.589230	-0.362108	-0.334191	-85.163176	-59.043342	-0.138726
35248		0.640404	-0.589194	-0.362150	-0.334038	-85.161883	-59.033685	-0.120861
35249		0.640504	-0.589138	-0.362192	-0.333897	-85.155305	-59.025236	-0.107073
