// General information: 
//  MT Manager version: 2022.2.0 
//  XDA version: 2022.2.0 build 7381 rev 124627 built on 2023-07-19
// Device information: 
//  DeviceId: 10B41517
//  ProductCode: MTW2-3A7G6
//  Firmware Version: 4.14.0
//  Hardware Version: 3.0.0
// Device settings: 
//  Filter Profile: human(46.1)
//  Option Flags: Orientation Smoother Disabled, Position/Velocity Smoother Disabled, Continuous Zero Rotation Update Disabled, AHS Disabled, ICC Disabled
// Coordinate system: ENU
PacketCounter	SampleTimeFine	Quat_q0	Quat_q1	Quat_q2	Quat_q3	Roll	Pitch	Yaw
34038		0.081613	-0.566702	-0.025944	-0.819460	-7.984075	-68.909613	-163.142203
34039		0.081650	-0.566698	-0.025961	-0.819459	-7.985968	-68.909044	-163.135852
34040		0.081585	-0.566689	-0.025906	-0.819473	-7.987692	-68.907367	-163.143953
34041		0.081655	-0.566673	-0.025945	-0.819476	-7.988680	-68.905272	-163.133928
34042		0.081635	-0.566654	-0.025952	-0.819491	-7.981848	-68.903057	-163.141794
34043		0.081544	-0.566654	-0.025923	-0.819501	-7.973053	-68.903318	-163.160469
34044		0.081539	-0.566656	-0.025954	-0.819499	-7.964387	-68.904386	-163.167059
34045		0.081463	-0.566661	-0.025933	-0.819504	-7.956627	-68.905361	-163.182887
34046		0.081408	-0.566667	-0.025905	-0.819506	-7.954235	-68.906091	-163.192137
34047		0.081406	-0.566675	-0.025916	-0.819501	-7.951797	-68.907393	-163.193798
34048		0.081372	-0.566665	-0.025875	-0.819512	-7.955510	-68.905542	-163.196288
34049		0.081262	-0.566651	-0.025800	-0.819535	-7.953674	-68.903153	-163.213452
34050		0.081271	-0.566643	-0.025788	-0.819540	-7.957750	-68.901850	-163.209550
34051		0.081358	-0.566669	-0.025858	-0.819511	-7.957488	-68.905967	-163.196923
34052		0.081356	-0.566708	-0.025837	-0.819485	-7.965750	-68.910850	-163.190535
34053		0.081432	-0.566782	-0.025894	-0.819425	-7.970781	-68.921245	-163.174684
34054		0.081393	-0.566841	-0.025857	-0.819389	-7.978010	-68.928961	-163.173871
34055		0.081286	-0.566901	-0.025774	-0.819361	-7.984751	-68.936476	-163.182956
34056		0.081256	-0.566928	-0.025739	-0.819346	-7.990780	-68.939799	-163.182349
34057		0.081298	-0.566923	-0.025764	-0.819344	-7.991544	-68.939207	-163.175983
34058		0.081335	-0.566879	-0.025784	-0.819370	-7.989346	-68.933258	-163.173459
34059		0.081386	-0.566832	-0.025838	-0.819396	-7.980935	-68.927381	-163.173102
34060		0.081426	-0.566795	-0.025888	-0.819416	-7.972325	-68.922964	-163.174161
34061		0.081583	-0.566768	-0.026016	-0.819415	-7.965587	-68.920468	-163.157273
34062		0.081563	-0.566780	-0.026032	-0.819408	-7.958769	-68.922554	-163.164488
34063		0.081518	-0.566811	-0.026002	-0.819392	-7.961131	-68.926590	-163.168420
34064		0.081475	-0.566849	-0.025975	-0.819371	-7.963084	-68.931637	-163.172316
34065		0.081565	-0.566856	-0.026047	-0.819355	-7.961632	-68.933210	-163.160414
34066		0.081554	-0.566834	-0.026040	-0.819372	-7.959556	-68.930194	-163.163933
34067		0.081602	-0.566803	-0.026111	-0.819386	-7.947532	-68.926926	-163.166081
34068		0.081611	-0.566764	-0.026099	-0.819413	-7.948827	-68.921269	-163.164940
34069		0.081609	-0.566747	-0.026100	-0.819425	-7.946990	-68.918987	-163.166874
34070		0.081548	-0.566745	-0.026109	-0.819432	-7.933609	-68.919498	-163.184554
34071		0.081435	-0.566739	-0.026037	-0.819449	-7.931390	-68.918291	-163.202006
34072		0.081365	-0.566753	-0.025994	-0.819448	-7.930857	-68.920041	-163.211859
34073		0.081417	-0.566764	-0.025994	-0.819436	-7.940872	-68.920978	-163.197566
34074		0.081333	-0.566803	-0.025920	-0.819419	-7.947944	-68.925594	-163.203628
34075		0.081268	-0.566837	-0.025820	-0.819405	-7.964676	-68.928908	-163.200608
34076		0.081177	-0.566867	-0.025758	-0.819395	-7.966713	-68.932594	-163.211215
34077		0.080999	-0.566897	-0.025598	-0.819397	-7.978345	-68.935217	-163.227632
34078		0.080956	-0.566921	-0.025612	-0.819385	-7.968594	-68.939123	-163.239832
34079		0.080885	-0.566931	-0.025592	-0.819385	-7.961884	-68.940830	-163.254044
34080		0.080868	-0.566932	-0.025598	-0.819386	-7.957546	-68.941231	-163.259335
34081		0.080800	-0.566935	-0.025558	-0.819392	-7.955699	-68.941441	-163.270094
34082		0.080740	-0.566947	-0.025493	-0.819391	-7.962682	-68.942446	-163.273483
34083		0.080597	-0.566953	-0.025347	-0.819406	-7.974737	-68.941611	-163.285360
34084		0.080548	-0.566967	-0.025307	-0.819402	-7.977344	-68.943281	-163.290083
34085		0.080596	-0.566986	-0.025327	-0.819384	-7.982459	-68.945766	-163.279360
34086		0.080598	-0.566982	-0.025296	-0.819387	-7.990446	-68.944611	-163.273798
34087		0.080589	-0.566973	-0.025311	-0.819394	-7.983959	-68.943699	-163.279741
34088		0.080615	-0.566976	-0.025346	-0.819388	-7.979987	-68.944639	-163.278634
34089		0.080736	-0.566984	-0.025428	-0.819368	-7.981671	-68.946201	-163.260251
34090		0.080716	-0.566994	-0.025386	-0.819364	-7.989488	-68.946925	-163.257549
34091		0.080683	-0.567006	-0.025352	-0.819361	-7.993282	-68.948113	-163.259299
34092		0.080661	-0.567012	-0.025295	-0.819360	-8.004308	-68.948073	-163.254803
34093		0.080560	-0.567025	-0.025231	-0.819363	-8.003641	-68.949523	-163.269198
34094		0.080554	-0.567043	-0.025221	-0.819352	-8.006622	-68.951732	-163.267511
34095		0.080598	-0.567079	-0.025274	-0.819321	-8.003929	-68.957300	-163.262300
34096		0.080562	-0.567113	-0.025267	-0.819301	-8.001946	-68.962197	-163.267850
34097		0.080417	-0.567147	-0.025174	-0.819294	-8.002538	-68.966395	-163.287050
34098		0.080364	-0.567171	-0.025120	-0.819285	-8.008600	-68.969043	-163.289799
34099		0.080476	-0.567168	-0.025152	-0.819275	-8.020538	-68.968150	-163.265994
34100		0.080450	-0.567123	-0.025097	-0.819311	-8.026238	-68.961143	-163.266907
34101		0.080284	-0.567051	-0.024978	-0.819380	-8.020970	-68.950683	-163.295482
34102		0.080287	-0.566987	-0.024929	-0.819425	-8.028874	-68.940932	-163.291288
34103		0.080221	-0.566924	-0.024882	-0.819477	-8.023931	-68.932043	-163.305404
34104		0.080214	-0.566877	-0.024873	-0.819510	-8.021334	-68.925549	-163.309312
34105		0.080117	-0.566889	-0.024802	-0.819514	-8.022830	-68.926596	-163.321752
34106		0.080111	-0.566904	-0.024768	-0.819505	-8.031762	-68.928095	-163.316171
34107		0.079968	-0.566941	-0.024671	-0.819496	-8.034038	-68.932617	-163.333731
34108		0.079959	-0.566966	-0.024590	-0.819482	-8.055132	-68.934435	-163.320163
34109		0.080038	-0.566961	-0.024597	-0.819478	-8.067010	-68.933155	-163.301135
34110		0.080087	-0.566969	-0.024650	-0.819466	-8.062989	-68.934767	-163.296678
34111		0.080217	-0.566950	-0.024729	-0.819464	-8.064699	-68.932528	-163.277679
34112		0.080286	-0.566955	-0.024769	-0.819453	-8.067039	-68.933289	-163.266280
34113		0.080342	-0.566962	-0.024827	-0.819441	-8.062833	-68.934871	-163.261153
34114		0.080350	-0.567015	-0.024834	-0.819403	-8.066988	-68.942152	-163.255877
34115		0.080357	-0.567075	-0.024810	-0.819361	-8.079124	-68.949850	-163.245242
34116		0.080346	-0.567144	-0.024764	-0.819316	-8.094593	-68.958409	-163.234665
34117		0.080285	-0.567212	-0.024727	-0.819276	-8.098748	-68.967515	-163.238643
34118		0.080291	-0.567260	-0.024694	-0.819243	-8.112088	-68.973317	-163.227647
34119		0.080149	-0.567272	-0.024565	-0.819253	-8.120602	-68.973788	-163.241592
34120		0.080159	-0.567283	-0.024561	-0.819244	-8.124453	-68.975033	-163.237203
34121		0.080048	-0.567292	-0.024461	-0.819252	-8.130669	-68.975312	-163.248480
34122		0.080035	-0.567314	-0.024456	-0.819238	-8.131609	-68.978388	-163.249067
34123		0.080051	-0.567334	-0.024449	-0.819223	-8.137671	-68.980888	-163.242247
34124		0.080018	-0.567358	-0.024432	-0.819210	-8.138196	-68.984109	-163.245873
34125		0.079971	-0.567389	-0.024386	-0.819194	-8.144065	-68.987835	-163.247706
34126		0.079950	-0.567413	-0.024337	-0.819181	-8.154900	-68.990348	-163.242713
34127		0.080086	-0.567414	-0.024433	-0.819164	-8.154629	-68.991077	-163.223862
34128		0.080101	-0.567418	-0.024467	-0.819160	-8.149036	-68.992064	-163.225379
34129		0.080121	-0.567431	-0.024507	-0.819147	-8.143432	-68.994522	-163.226077
34130		0.080124	-0.567447	-0.024541	-0.819135	-8.136507	-68.997295	-163.229988
34131		0.080118	-0.567472	-0.024541	-0.819118	-8.137620	-69.000760	-163.229484
34132		0.080069	-0.567486	-0.024501	-0.819114	-8.140226	-69.002441	-163.234217
34133		0.080055	-0.567473	-0.024488	-0.819125	-8.140018	-69.000511	-163.236617
34134		0.080059	-0.567457	-0.024455	-0.819137	-8.147734	-68.997608	-163.231271
34135		0.079924	-0.567460	-0.024366	-0.819150	-8.146691	-68.997587	-163.250841
34136		0.079976	-0.567440	-0.024401	-0.819159	-8.145324	-68.994958	-163.245015
34137		0.080184	-0.567418	-0.024559	-0.819149	-8.140385	-68.993103	-163.219651
34138		0.080234	-0.567411	-0.024620	-0.819147	-8.133298	-68.992931	-163.217550
34139		0.080433	-0.567417	-0.024763	-0.819119	-8.132851	-68.994698	-163.189795
34140		0.080458	-0.567435	-0.024791	-0.819103	-8.131847	-68.997436	-163.186417
34141		0.080488	-0.567459	-0.024794	-0.819083	-8.138350	-69.000426	-163.177272
34142		0.080485	-0.567480	-0.024765	-0.819070	-8.146850	-69.002742	-163.171334
34143		0.080389	-0.567497	-0.024631	-0.819071	-8.165429	-69.003387	-163.171880
34144		0.080398	-0.567520	-0.024595	-0.819055	-8.178278	-69.005707	-163.161237
34145		0.080401	-0.567525	-0.024557	-0.819053	-8.188797	-69.005475	-163.153601
34146		0.080480	-0.567543	-0.024592	-0.819031	-8.195725	-69.007976	-163.137314
34147		0.080552	-0.567572	-0.024630	-0.819004	-8.201273	-69.011859	-163.122703
34148		0.080623	-0.567610	-0.024695	-0.818968	-8.200443	-69.017689	-163.112399
34149		0.080833	-0.567668	-0.024810	-0.818904	-8.213756	-69.025844	-163.072389
34150		0.080927	-0.567741	-0.024869	-0.818842	-8.221714	-69.035982	-163.051917
34151		0.081280	-0.567822	-0.025093	-0.818744	-8.234600	-69.048190	-162.991423
34152		0.081363	-0.567909	-0.025143	-0.818674	-8.244026	-69.060168	-162.971165
34153		0.081476	-0.567978	-0.025212	-0.818613	-8.252384	-69.069810	-162.947998
34154		0.081510	-0.568023	-0.025202	-0.818579	-8.265049	-69.075363	-162.933391
34155		0.081741	-0.568038	-0.025326	-0.818541	-8.276243	-69.077750	-162.892928
34156		0.081773	-0.568019	-0.025349	-0.818550	-8.274406	-69.075280	-162.890159
34157		0.081835	-0.567965	-0.025369	-0.818581	-8.276167	-69.067719	-162.881571
34158		0.081855	-0.567914	-0.025391	-0.818614	-8.269866	-69.060950	-162.884276
34159		0.081962	-0.567885	-0.025517	-0.818619	-8.254224	-69.058579	-162.880595
34160		0.081940	-0.567865	-0.025567	-0.818634	-8.235682	-69.057032	-162.896815
34161		0.081909	-0.567853	-0.025591	-0.818645	-8.222925	-69.056227	-162.910150
34162		0.081881	-0.567854	-0.025595	-0.818647	-8.216922	-69.056707	-162.918072
34163		0.081574	-0.567891	-0.025413	-0.818657	-8.211196	-69.061100	-162.964268
34164		0.081502	-0.567917	-0.025373	-0.818647	-8.210923	-69.064624	-162.973915
34165		0.081419	-0.567946	-0.025321	-0.818638	-8.211430	-69.068252	-162.984566
34166		0.081336	-0.568001	-0.025230	-0.818610	-8.224422	-69.074725	-162.986034
34167		0.081023	-0.568049	-0.025020	-0.818615	-8.225794	-69.080081	-163.027976
34168		0.080934	-0.568065	-0.024932	-0.818615	-8.233598	-69.081338	-163.034806
34169		0.080858	-0.568089	-0.024866	-0.818608	-8.238896	-69.084105	-163.041316
34170		0.080811	-0.568108	-0.024842	-0.818600	-8.238282	-69.086566	-163.047833
34171		0.080765	-0.568136	-0.024811	-0.818586	-8.240040	-69.090251	-163.052548
34172		0.080704	-0.568148	-0.024779	-0.818584	-8.238285	-69.091941	-163.061985
34173		0.080744	-0.568089	-0.024775	-0.818622	-8.241664	-69.083294	-163.055525
34174		0.080688	-0.568062	-0.024714	-0.818648	-8.245099	-69.079040	-163.061629
34175		0.080571	-0.568078	-0.024598	-0.818652	-8.255070	-69.080017	-163.070933
34176		0.080509	-0.568118	-0.024527	-0.818632	-8.265409	-69.084562	-163.071727
34177		0.080317	-0.568158	-0.024374	-0.818628	-8.273454	-69.088823	-163.092203
34178		0.080237	-0.568232	-0.024315	-0.818586	-8.280239	-69.098591	-163.097106
34179		0.080214	-0.568280	-0.024298	-0.818555	-8.284483	-69.105052	-163.096237
34180		0.080110	-0.568337	-0.024228	-0.818528	-8.288250	-69.112361	-163.106864
34181		0.080042	-0.568371	-0.024170	-0.818513	-8.293889	-69.116528	-163.111706
34182		0.079960	-0.568413	-0.024144	-0.818492	-8.289003	-69.122623	-163.125601
34183		0.079829	-0.568425	-0.024054	-0.818500	-8.289508	-69.123630	-163.143372
34184		0.079814	-0.568413	-0.024058	-0.818509	-8.284785	-69.122311	-163.148975
34185		0.079919	-0.568378	-0.024187	-0.818520	-8.267749	-69.119029	-163.146630
34186		0.079900	-0.568345	-0.024202	-0.818544	-8.257658	-69.115050	-163.157042
34187		0.079793	-0.568303	-0.024164	-0.818584	-8.244466	-69.109687	-163.182090
34188		0.079744	-0.568242	-0.024123	-0.818633	-8.241076	-69.100934	-163.192777
34189		0.079769	-0.568210	-0.024139	-0.818652	-8.238868	-69.096728	-163.191600
34190		0.079701	-0.568242	-0.024104	-0.818638	-8.238074	-69.101079	-163.200972
34191		0.079610	-0.568281	-0.024015	-0.818622	-8.247891	-69.105394	-163.206079
34192		0.079595	-0.568330	-0.024004	-0.818590	-8.252115	-69.112004	-163.204102
34193		0.079816	-0.568343	-0.024147	-0.818555	-8.256242	-69.114553	-163.169896
34194		0.079847	-0.568354	-0.024180	-0.818544	-8.254487	-69.116361	-163.166391
34195		0.079838	-0.568380	-0.024204	-0.818525	-8.248814	-69.120518	-163.170881
34196		0.079867	-0.568402	-0.024214	-0.818507	-8.253337	-69.123345	-163.163215
34197		0.079901	-0.568395	-0.024238	-0.818508	-8.252482	-69.122579	-163.159242
34198		0.079888	-0.568337	-0.024150	-0.818552	-8.268228	-69.113096	-163.151760
34199		0.079892	-0.568267	-0.024091	-0.818602	-8.278475	-69.102312	-163.145881
34200		0.079901	-0.568166	-0.024037	-0.818673	-8.285468	-69.087312	-163.142429
34201		0.080062	-0.568040	-0.024077	-0.818744	-8.293654	-69.069304	-163.117286
34202		0.080130	-0.567920	-0.024100	-0.818820	-8.290031	-69.052739	-163.113169
34203		0.080363	-0.567835	-0.024224	-0.818852	-8.293344	-69.041414	-163.080225
34204		0.080409	-0.567761	-0.024270	-0.818897	-8.283671	-69.031768	-163.082122
34205		0.080649	-0.567711	-0.024425	-0.818904	-8.282835	-69.025700	-163.050290
34206		0.080671	-0.567723	-0.024447	-0.818892	-8.282261	-69.027609	-163.047204
34207		0.080696	-0.567757	-0.024453	-0.818866	-8.288241	-69.032036	-163.038801
34208		0.080738	-0.567798	-0.024496	-0.818833	-8.288168	-69.038094	-163.031925
34209		0.080825	-0.567814	-0.024572	-0.818811	-8.285549	-69.040963	-163.021089
34210		0.080831	-0.567849	-0.024605	-0.818785	-8.281158	-69.046358	-163.022299
34211		0.080947	-0.567866	-0.024721	-0.818758	-8.273747	-69.049885	-163.010584
34212		0.080928	-0.567880	-0.024762	-0.818749	-8.260801	-69.052729	-163.021785
34213		0.080813	-0.567906	-0.024775	-0.818742	-8.238985	-69.057793	-163.052081
34214		0.080790	-0.567914	-0.024810	-0.818737	-8.226479	-69.059816	-163.063631
34215		0.080626	-0.567942	-0.024801	-0.818735	-8.201494	-69.064982	-163.103030
34216		0.080574	-0.567983	-0.024822	-0.818711	-8.189834	-69.071554	-163.117335
34217		0.080652	-0.568028	-0.024902	-0.818669	-8.187108	-69.078628	-163.107057
34218		0.080541	-0.568090	-0.024872	-0.818638	-8.180032	-69.087489	-163.125987
34219		0.080287	-0.568151	-0.024727	-0.818625	-8.176195	-69.095363	-163.162821
34220		0.080147	-0.568169	-0.024648	-0.818629	-8.172768	-69.097662	-163.184390
34221		0.079968	-0.568189	-0.024531	-0.818636	-8.172139	-69.099742	-163.209539
34222		0.079820	-0.568210	-0.024466	-0.818637	-8.163851	-69.102867	-163.235537
34223		0.079608	-0.568256	-0.024352	-0.818630	-8.158493	-69.108918	-163.267827
34224		0.079483	-0.568282	-0.024305	-0.818625	-8.150134	-69.112712	-163.290485
34225		0.079294	-0.568301	-0.024241	-0.818632	-8.133834	-69.115933	-163.327707
34226		0.079242	-0.568298	-0.024261	-0.818639	-8.118982	-69.116404	-163.345170
34227		0.079265	-0.568285	-0.024335	-0.818643	-8.103011	-69.115955	-163.353169
34228		0.079233	-0.568265	-0.024350	-0.818660	-8.091565	-69.113761	-163.365958
34229		0.079398	-0.568243	-0.024472	-0.818656	-8.088317	-69.111600	-163.345466
34230		0.079347	-0.568224	-0.024442	-0.818675	-8.085269	-69.108889	-163.355169
34231		0.079297	-0.568199	-0.024370	-0.818699	-8.092851	-69.104538	-163.357634
34232		0.079310	-0.568181	-0.024381	-0.818710	-8.090591	-69.102188	-163.357885
34233		0.079331	-0.568193	-0.024408	-0.818699	-8.088648	-69.104145	-163.355862
34234		0.079378	-0.568227	-0.024489	-0.818668	-8.078958	-69.109944	-163.355049
34235		0.079162	-0.568275	-0.024386	-0.818658	-8.070316	-69.116629	-163.390130
34236		0.079245	-0.568331	-0.024494	-0.818608	-8.061945	-69.125612	-163.382874
34237		0.079420	-0.568395	-0.024642	-0.818543	-8.060902	-69.135503	-163.357308
34238		0.079493	-0.568451	-0.024716	-0.818495	-8.059743	-69.143873	-163.346526
34239		0.079321	-0.568508	-0.024612	-0.818475	-8.059989	-69.151265	-163.369113
34240		0.079384	-0.568533	-0.024641	-0.818450	-8.066012	-69.154715	-163.355517
34241		0.079400	-0.568540	-0.024639	-0.818444	-8.070084	-69.155386	-163.350390
34242		0.079476	-0.568539	-0.024675	-0.818436	-8.074399	-69.155254	-163.336751
34243		0.079695	-0.568544	-0.024806	-0.818408	-8.080658	-69.156462	-163.301629
34244		0.079741	-0.568546	-0.024854	-0.818400	-8.076906	-69.157258	-163.297613
34245		0.079981	-0.568533	-0.025004	-0.818381	-8.080929	-69.156104	-163.261389
34246		0.080009	-0.568569	-0.025040	-0.818353	-8.079609	-69.161404	-163.257526
34247		0.079924	-0.568613	-0.025024	-0.818331	-8.071867	-69.167986	-163.273655
34248		0.079934	-0.568654	-0.025063	-0.818300	-8.066870	-69.174214	-163.274679
34249		0.080043	-0.568676	-0.025169	-0.818271	-8.061246	-69.178370	-163.262551
34250		0.080041	-0.568699	-0.025200	-0.818254	-8.054847	-69.182087	-163.266694
34251		0.079885	-0.568723	-0.025098	-0.818256	-8.054763	-69.184905	-163.288114
34252		0.079895	-0.568732	-0.025104	-0.818248	-8.055762	-69.186104	-163.285874
34253		0.079822	-0.568755	-0.025074	-0.818241	-8.052222	-69.189325	-163.297878
34254		0.079878	-0.568770	-0.025091	-0.818224	-8.059164	-69.191142	-163.284930
34255		0.080016	-0.568781	-0.025171	-0.818201	-8.064504	-69.192920	-163.261579
34256		0.080064	-0.568799	-0.025202	-0.818182	-8.066576	-69.195562	-163.253066
34257		0.080016	-0.568819	-0.025180	-0.818174	-8.065347	-69.198263	-163.260154
34258		0.080037	-0.568829	-0.025177	-0.818165	-8.070742	-69.199461	-163.253162
34259		0.079916	-0.568836	-0.025071	-0.818175	-8.076675	-69.199480	-163.266056
34260		0.079957	-0.568815	-0.025105	-0.818184	-8.073550	-69.196902	-163.262930
34261		0.080085	-0.568776	-0.025143	-0.818198	-8.083752	-69.190999	-163.238922
34262		0.080179	-0.568772	-0.025202	-0.818190	-8.085626	-69.190681	-163.224446
34263		0.080357	-0.568764	-0.025324	-0.818174	-8.085732	-69.190325	-163.199526
34264		0.080428	-0.568772	-0.025381	-0.818160	-8.084657	-69.191857	-163.190042
34265		0.080607	-0.568764	-0.025476	-0.818145	-8.092036	-69.190919	-163.160039
34266		0.080655	-0.568752	-0.025498	-0.818148	-8.094020	-69.189262	-163.152277
34267		0.080684	-0.568750	-0.025526	-0.818145	-8.091937	-69.189393	-163.149638
34268		0.080704	-0.568745	-0.025541	-0.818146	-8.091450	-69.188761	-163.147185
34269		0.080830	-0.568758	-0.025614	-0.818123	-8.096474	-69.190744	-163.125794
34270		0.080873	-0.568771	-0.025639	-0.818109	-8.098987	-69.192573	-163.117613
34271		0.080977	-0.568783	-0.025713	-0.818088	-8.099783	-69.194686	-163.102215
34272		0.081032	-0.568797	-0.025764	-0.818071	-8.097823	-69.197198	-163.095443
34273		0.080998	-0.568816	-0.025753	-0.818062	-8.096111	-69.199806	-163.100863
34274		0.081071	-0.568856	-0.025810	-0.818025	-8.097882	-69.205701	-163.088485
34275		0.081188	-0.568889	-0.025902	-0.817987	-8.098112	-69.210967	-163.071039
34276		0.081247	-0.568941	-0.025959	-0.817943	-8.098551	-69.218659	-163.061043
34277		0.081182	-0.568960	-0.025895	-0.817938	-8.104798	-69.220605	-163.065585
34278		0.081216	-0.569007	-0.025943	-0.817901	-8.102500	-69.227581	-163.061112
34279		0.081334	-0.569019	-0.026045	-0.817877	-8.098663	-69.230214	-163.046879
34280		0.081369	-0.569036	-0.026084	-0.817861	-8.096281	-69.232885	-163.043160
34281		0.081407	-0.569063	-0.026106	-0.817838	-8.100053	-69.236731	-163.034558
34282		0.081409	-0.569075	-0.026092	-0.817829	-8.105036	-69.238087	-163.030596
34283		0.081302	-0.569089	-0.026018	-0.817833	-8.105556	-69.239462	-163.045001
34284		0.081304	-0.569087	-0.026012	-0.817835	-8.107454	-69.239033	-163.043433
34285		0.081220	-0.569092	-0.025955	-0.817841	-8.107257	-69.239356	-163.055265
34286		0.081208	-0.569130	-0.025967	-0.817815	-8.105096	-69.244988	-163.057500
34287		0.081122	-0.569177	-0.025923	-0.817793	-8.104914	-69.251245	-163.068526
34288		0.081070	-0.569202	-0.025894	-0.817781	-8.104966	-69.254651	-163.075187
34289		0.081003	-0.569263	-0.025855	-0.817747	-8.107867	-69.262774	-163.081153
34290		0.080973	-0.569290	-0.025854	-0.817731	-8.105028	-69.266813	-163.086645
34291		0.080836	-0.569283	-0.025790	-0.817751	-8.095868	-69.265890	-163.112429
34292		0.080852	-0.569258	-0.025840	-0.817765	-8.083812	-69.263356	-163.118945
34293		0.080834	-0.569250	-0.025903	-0.817771	-8.063258	-69.263752	-163.135820
34294		0.080868	-0.569252	-0.025984	-0.817763	-8.048846	-69.265338	-163.140743
34295		0.080948	-0.569275	-0.026105	-0.817736	-8.033943	-69.270062	-163.139087
34296		0.080969	-0.569348	-0.026180	-0.817681	-8.024417	-69.281327	-163.140887
34297		0.080998	-0.569435	-0.026240	-0.817615	-8.021408	-69.294123	-163.136731
34298		0.080981	-0.569510	-0.026223	-0.817565	-8.028936	-69.304298	-163.132156
34299		0.081085	-0.569557	-0.026298	-0.817520	-8.032309	-69.311123	-163.114002
34300		0.081114	-0.569578	-0.026309	-0.817502	-8.036734	-69.313986	-163.106395
34301		0.081211	-0.569606	-0.026355	-0.817471	-8.044688	-69.317831	-163.086643
34302		0.081310	-0.569593	-0.026394	-0.817469	-8.051831	-69.315889	-163.068097
34303		0.081398	-0.569579	-0.026442	-0.817469	-8.054454	-69.313990	-163.054209
34304		0.081495	-0.569564	-0.026523	-0.817467	-8.049821	-69.312707	-163.044089
34305		0.081648	-0.569557	-0.026625	-0.817453	-8.050915	-69.312264	-163.021904
34306		0.081749	-0.569562	-0.026671	-0.817438	-8.057831	-69.312897	-163.002842
34307		0.081722	-0.569582	-0.026641	-0.817428	-8.062564	-69.315345	-163.002901
34308		0.081788	-0.569626	-0.026611	-0.817392	-8.086196	-69.320003	-162.976343
34309		0.081819	-0.569684	-0.026641	-0.817347	-8.088916	-69.328221	-162.968741
34310		0.081871	-0.569707	-0.026611	-0.817327	-8.108322	-69.330320	-162.947502
34311		0.081920	-0.569723	-0.026630	-0.817310	-8.113777	-69.332438	-162.936473
34312		0.081969	-0.569728	-0.026635	-0.817302	-8.121601	-69.332633	-162.924202
34313		0.082139	-0.569730	-0.026729	-0.817280	-8.128823	-69.333240	-162.895111
34314		0.082181	-0.569709	-0.026730	-0.817290	-8.134473	-69.330002	-162.885896
34315		0.082128	-0.569664	-0.026656	-0.817329	-8.140096	-69.322838	-162.890698
34316		0.082137	-0.569597	-0.026660	-0.817375	-8.134889	-69.313628	-162.894683
34317		0.082116	-0.569509	-0.026596	-0.817441	-8.140448	-69.300481	-162.895921
34318		0.082143	-0.569436	-0.026597	-0.817489	-8.138909	-69.290341	-162.895033
34319		0.082201	-0.569397	-0.026613	-0.817510	-8.142077	-69.284731	-162.885668
34320		0.082218	-0.569370	-0.026605	-0.817527	-8.144968	-69.280778	-162.882002
34321		0.082265	-0.569388	-0.026600	-0.817510	-8.156463	-69.282685	-162.866975
34322		0.082246	-0.569444	-0.026551	-0.817474	-8.170390	-69.289544	-162.858793
34323		0.082202	-0.569503	-0.026517	-0.817439	-8.176184	-69.297181	-162.859563
34324		0.082177	-0.569550	-0.026447	-0.817411	-8.193876	-69.302428	-162.849840
34325		0.082108	-0.569583	-0.026386	-0.817397	-8.199694	-69.306331	-162.854811
34326		0.082105	-0.569572	-0.026324	-0.817407	-8.214249	-69.303593	-162.845522
34327		0.082085	-0.569555	-0.026303	-0.817421	-8.214551	-69.301061	-162.848602
34328		0.082096	-0.569505	-0.026315	-0.817454	-8.209135	-69.294423	-162.852061
34329		0.082029	-0.569476	-0.026271	-0.817483	-8.206069	-69.290209	-162.864214
34330		0.082043	-0.569460	-0.026274	-0.817492	-8.206415	-69.287958	-162.862510
34331		0.082054	-0.569452	-0.026298	-0.817496	-8.201429	-69.287291	-162.864556
34332		0.082085	-0.569433	-0.026322	-0.817505	-8.199327	-69.284856	-162.862024
34333		0.082155	-0.569429	-0.026387	-0.817499	-8.194900	-69.284971	-162.855340
34334		0.082216	-0.569407	-0.026400	-0.817508	-8.200878	-69.281585	-162.843164
34335		0.082329	-0.569415	-0.026471	-0.817488	-8.204040	-69.283086	-162.824861
34336		0.082399	-0.569436	-0.026496	-0.817466	-8.212027	-69.285698	-162.809045
34337		0.082386	-0.569490	-0.026474	-0.817430	-8.220074	-69.292814	-162.804019
34338		0.082443	-0.569523	-0.026499	-0.817401	-8.226761	-69.297226	-162.790558
34339		0.082496	-0.569536	-0.026506	-0.817386	-8.235941	-69.298625	-162.776489
34340		0.082584	-0.569523	-0.026577	-0.817384	-8.232399	-69.297462	-162.766898
34341		0.082681	-0.569498	-0.026677	-0.817389	-8.222156	-69.295093	-162.760738
34342		0.082797	-0.569450	-0.026771	-0.817407	-8.214778	-69.289351	-162.750745
34343		0.082949	-0.569424	-0.026892	-0.817406	-8.209343	-69.286818	-162.733633
34344		0.083035	-0.569410	-0.026972	-0.817405	-8.202942	-69.285632	-162.726249
34345		0.083088	-0.569402	-0.027007	-0.817403	-8.203067	-69.284799	-162.718882
34346		0.083158	-0.569394	-0.027048	-0.817400	-8.204767	-69.283869	-162.707957
34347		0.083219	-0.569372	-0.027101	-0.817408	-8.200178	-69.281298	-162.703068
34348		0.083294	-0.569385	-0.027165	-0.817389	-8.198413	-69.283731	-162.693432
34349		0.083447	-0.569393	-0.027282	-0.817364	-8.196820	-69.285646	-162.672691
34350		0.083458	-0.569435	-0.027347	-0.817331	-8.185617	-69.292724	-162.677797
34351		0.083498	-0.569456	-0.027390	-0.817311	-8.183658	-69.296111	-162.672874
34352		0.083508	-0.569467	-0.027421	-0.817301	-8.178433	-69.298122	-162.674760
34353		0.083548	-0.569467	-0.027463	-0.817296	-8.174651	-69.298606	-162.671727
34354		0.083543	-0.569471	-0.027462	-0.817294	-8.174422	-69.299090	-162.672483
34355		0.083446	-0.569481	-0.027372	-0.817300	-8.180828	-69.299533	-162.681518
34356		0.083378	-0.569483	-0.027328	-0.817307	-8.179983	-69.299627	-162.691607
34357		0.083410	-0.569480	-0.027291	-0.817307	-8.195168	-69.298195	-162.676854
34358		0.083308	-0.569491	-0.027161	-0.817314	-8.211041	-69.297962	-162.680136
34359		0.083178	-0.569472	-0.027028	-0.817345	-8.220110	-69.293814	-162.692795
34360		0.083132	-0.569430	-0.026985	-0.817380	-8.219180	-69.287710	-162.700958
34361		0.083071	-0.569402	-0.026931	-0.817407	-8.219757	-69.283445	-162.709775
34362		0.083042	-0.569370	-0.026911	-0.817434	-8.216665	-69.278903	-162.716874
34363		0.083083	-0.569341	-0.026947	-0.817448	-8.212612	-69.275339	-162.714571
34364		0.083059	-0.569348	-0.026958	-0.817446	-8.205904	-69.276724	-162.722368
34365		0.083096	-0.569334	-0.026947	-0.817452	-8.214221	-69.274150	-162.711803
34366		0.083078	-0.569333	-0.026963	-0.817454	-8.206745	-69.274619	-162.719519
34367		0.083089	-0.569334	-0.026952	-0.817452	-8.211707	-69.274378	-162.714480
34368		0.083122	-0.569315	-0.026943	-0.817463	-8.218483	-69.271242	-162.705766
34369		0.083156	-0.569298	-0.026969	-0.817470	-8.216696	-69.269161	-162.702505
34370		0.083240	-0.569278	-0.027009	-0.817474	-8.219656	-69.266432	-162.689253
34371		0.083250	-0.569270	-0.027007	-0.817479	-8.221459	-69.265214	-162.686783
34372		0.083319	-0.569261	-0.027057	-0.817477	-8.220292	-69.264253	-162.678070
34373		0.083396	-0.569260	-0.027076	-0.817469	-8.229380	-69.263832	-162.661039
34374		0.083478	-0.569254	-0.027144	-0.817462	-8.226501	-69.263610	-162.651602
34375		0.083541	-0.569227	-0.027203	-0.817473	-8.220238	-69.260487	-162.647654
34376		0.083608	-0.569199	-0.027246	-0.817484	-8.219204	-69.256964	-162.639545
34377		0.083647	-0.569186	-0.027259	-0.817489	-8.221647	-69.254979	-162.632805
34378		0.083693	-0.569172	-0.027291	-0.817492	-8.220563	-69.253346	-162.627439
34379		0.083644	-0.569145	-0.027251	-0.817518	-8.219758	-69.249260	-162.635482
34380		0.083707	-0.569096	-0.027305	-0.817544	-8.213204	-69.243110	-162.632353
34381		0.083853	-0.569037	-0.027418	-0.817565	-8.205638	-69.236051	-162.618397
34382		0.083917	-0.569023	-0.027530	-0.817566	-8.186992	-69.235739	-162.622508
34383		0.083902	-0.569027	-0.027552	-0.817563	-8.179156	-69.236887	-162.629752
34384		0.083903	-0.569039	-0.027572	-0.817554	-8.175153	-69.239003	-162.632051
34385		0.083855	-0.569060	-0.027551	-0.817545	-8.173514	-69.241921	-162.639427
34386		0.083817	-0.569060	-0.027496	-0.817551	-8.180755	-69.241060	-162.639872
34387		0.083705	-0.569056	-0.027424	-0.817568	-8.178398	-69.240184	-162.657420
34388		0.083710	-0.569029	-0.027415	-0.817586	-8.179586	-69.236313	-162.656452
34389		0.083795	-0.568983	-0.027485	-0.817607	-8.173006	-69.230605	-162.650219
34390		0.083784	-0.568933	-0.027494	-0.817643	-8.164285	-69.224128	-162.658971
34391		0.083737	-0.568904	-0.027484	-0.817668	-8.155916	-69.220343	-162.672003
34392		0.083675	-0.568885	-0.027452	-0.817689	-8.151198	-69.217759	-162.684425
34393		0.083696	-0.568885	-0.027471	-0.817686	-8.150297	-69.217883	-162.682069
34394		0.083632	-0.568893	-0.027433	-0.817688	-8.149021	-69.218816	-162.691793
34395		0.083412	-0.568900	-0.027296	-0.817710	-8.144790	-69.219212	-162.725461
34396		0.083380	-0.568893	-0.027246	-0.817720	-8.151253	-69.217440	-162.725838
34397		0.083384	-0.568896	-0.027247	-0.817718	-8.151945	-69.217831	-162.724644
34398		0.083350	-0.568902	-0.027223	-0.817718	-8.152595	-69.218563	-162.728806
34399		0.083461	-0.568904	-0.027297	-0.817703	-8.153914	-69.219196	-162.712211
34400		0.083439	-0.568926	-0.027291	-0.817689	-8.153163	-69.222405	-162.715383
34401		0.083497	-0.568960	-0.027345	-0.817658	-8.152738	-69.227589	-162.706594
34402		0.083469	-0.568976	-0.027343	-0.817650	-8.149623	-69.229941	-162.712279
34403		0.083464	-0.568982	-0.027367	-0.817646	-8.142886	-69.231283	-162.717447
34404		0.083419	-0.568972	-0.027324	-0.817658	-8.144935	-69.229537	-162.722584
34405		0.083385	-0.568946	-0.027307	-0.817681	-8.140846	-69.225896	-162.730806
34406		0.083342	-0.568910	-0.027305	-0.817710	-8.130502	-69.221362	-162.744866
34407		0.083195	-0.568868	-0.027228	-0.817757	-8.119996	-69.215560	-162.773830
34408		0.083183	-0.568832	-0.027230	-0.817783	-8.114416	-69.210854	-162.780131
34409		0.083159	-0.568809	-0.027217	-0.817802	-8.111453	-69.207606	-162.786141
34410		0.083178	-0.568802	-0.027241	-0.817804	-8.107942	-69.207005	-162.786041
34411		0.083310	-0.568795	-0.027329	-0.817792	-8.108924	-69.206588	-162.766858
34412		0.083317	-0.568801	-0.027354	-0.817787	-8.104131	-69.207787	-162.769086
34413		0.083306	-0.568812	-0.027367	-0.817780	-8.099593	-69.209698	-162.773388
34414		0.083310	-0.568796	-0.027335	-0.817792	-8.107211	-69.206809	-162.768111
34415		0.083264	-0.568793	-0.027299	-0.817799	-8.107896	-69.206190	-162.774135
34416		0.083264	-0.568788	-0.027278	-0.817804	-8.112989	-69.205010	-162.770794
34417		0.083190	-0.568778	-0.027220	-0.817820	-8.113647	-69.203223	-162.781040
34418		0.083235	-0.568749	-0.027235	-0.817835	-8.115509	-69.199060	-162.774107
34419		0.083267	-0.568731	-0.027250	-0.817844	-8.116048	-69.196621	-162.769745
34420		0.083309	-0.568698	-0.027283	-0.817862	-8.112248	-69.192397	-162.767189
34421		0.083376	-0.568687	-0.027324	-0.817861	-8.113087	-69.191071	-162.757448
34422		0.083433	-0.568674	-0.027357	-0.817864	-8.113528	-69.189391	-162.749547
34423		0.083441	-0.568673	-0.027379	-0.817862	-8.109481	-69.189664	-162.751111
34424		0.083512	-0.568681	-0.027437	-0.817848	-8.108039	-69.191290	-162.741909
34425		0.083648	-0.568697	-0.027546	-0.817819	-8.106007	-69.194448	-162.723754
34426		0.083697	-0.568720	-0.027594	-0.817797	-8.104533	-69.197964	-162.717274
34427		0.083668	-0.568728	-0.027590	-0.817794	-8.100963	-69.199324	-162.723626
34428		0.083706	-0.568720	-0.027627	-0.817794	-8.097748	-69.198592	-162.720582
34429		0.083884	-0.568725	-0.027755	-0.817768	-8.097711	-69.200238	-162.695373
34430		0.083962	-0.568744	-0.027825	-0.817744	-8.095305	-69.203527	-162.685532
34431		0.084035	-0.568739	-0.027923	-0.817737	-8.082882	-69.204126	-162.683912
34432		0.084010	-0.568730	-0.027917	-0.817746	-8.079134	-69.203006	-162.690123
34433		0.083886	-0.568723	-0.027792	-0.817768	-8.088340	-69.200640	-162.701532
34434		0.083769	-0.568712	-0.027671	-0.817792	-8.097251	-69.197830	-162.712269
34435		0.083703	-0.568666	-0.027589	-0.817833	-8.102635	-69.190553	-162.718985
34436		0.083665	-0.568591	-0.027557	-0.817890	-8.097475	-69.180047	-162.729795
34437		0.083655	-0.568524	-0.027592	-0.817937	-8.080823	-69.171682	-162.744211
34438		0.083588	-0.568468	-0.027555	-0.817984	-8.073607	-69.163948	-162.759972
34439		0.083451	-0.568469	-0.027437	-0.818001	-8.079083	-69.163016	-162.775482
34440		0.083382	-0.568498	-0.027353	-0.817991	-8.090684	-69.165912	-162.776596
34441		0.083329	-0.568525	-0.027309	-0.817979	-8.094693	-69.169219	-162.780597
34442		0.083308	-0.568536	-0.027302	-0.817974	-8.093619	-69.170696	-162.784033
34443		0.083357	-0.568528	-0.027354	-0.817972	-8.088420	-69.170274	-162.780981
34444		0.083353	-0.568503	-0.027334	-0.817991	-8.090826	-69.166500	-162.780426
34445		0.083490	-0.568470	-0.027461	-0.817996	-8.080143	-69.163202	-162.769280
34446		0.083467	-0.568462	-0.027446	-0.818004	-8.079231	-69.162112	-162.773289
34447		0.083402	-0.568421	-0.027406	-0.818041	-8.074301	-69.156274	-162.786794
34448		0.083382	-0.568401	-0.027389	-0.818057	-8.073080	-69.153443	-162.791063
34449		0.083433	-0.568379	-0.027425	-0.818066	-8.071401	-69.150634	-162.785491
34450		0.083430	-0.568356	-0.027430	-0.818082	-8.067683	-69.147625	-162.788965
34451		0.083480	-0.568320	-0.027496	-0.818100	-8.056710	-69.143606	-162.790381
34452		0.083504	-0.568290	-0.027508	-0.818118	-8.055368	-69.139566	-162.788629
34453		0.083564	-0.568258	-0.027525	-0.818134	-8.059258	-69.134877	-162.778311
34454		0.083602	-0.568264	-0.027588	-0.818124	-8.050218	-69.136646	-162.779032
34455		0.083687	-0.568252	-0.027661	-0.818121	-8.045984	-69.135708	-162.770161
34456		0.083757	-0.568258	-0.027729	-0.818107	-8.041664	-69.137305	-162.763159
34457		0.083985	-0.568261	-0.027894	-0.818075	-8.040819	-69.138969	-162.731485
34458		0.084016	-0.568257	-0.027912	-0.818075	-8.041658	-69.138355	-162.726639
34459		0.084047	-0.568250	-0.027896	-0.818077	-8.050865	-69.136866	-162.716129
34460		0.084039	-0.568234	-0.027896	-0.818089	-8.047918	-69.134776	-162.719664
34461		0.084040	-0.568162	-0.027847	-0.818140	-8.054676	-69.123900	-162.716756
34462		0.084067	-0.568093	-0.027899	-0.818184	-8.040605	-69.115352	-162.724194
34463		0.084026	-0.568030	-0.027867	-0.818233	-8.036067	-69.106461	-162.734590
34464		0.084062	-0.567958	-0.027904	-0.818278	-8.026864	-69.097062	-162.737604
34465		0.084237	-0.567917	-0.028030	-0.818284	-8.022814	-69.092455	-162.716678
34466		0.084266	-0.567909	-0.028066	-0.818285	-8.017990	-69.091787	-162.716200
34467		0.084186	-0.567911	-0.028012	-0.818294	-8.017687	-69.091716	-162.727595
34468		0.084195	-0.567920	-0.028018	-0.818287	-8.018501	-69.092993	-162.725469
34469		0.084117	-0.567917	-0.027946	-0.818300	-8.022403	-69.091785	-162.734011
34470		0.084121	-0.567904	-0.027964	-0.818307	-8.017726	-69.090439	-162.736838
34471		0.084099	-0.567870	-0.027920	-0.818335	-8.022268	-69.085026	-162.737704
34472		0.084085	-0.567815	-0.027889	-0.818375	-8.022924	-69.077016	-162.740581
34473		0.083959	-0.567770	-0.027801	-0.818422	-8.018988	-69.070328	-162.762115
34474		0.083965	-0.567729	-0.027800	-0.818450	-8.016977	-69.064709	-162.763624
34475		0.083891	-0.567682	-0.027765	-0.818492	-8.008561	-69.058217	-162.780998
34476		0.083896	-0.567639	-0.027773	-0.818521	-8.003728	-69.052570	-162.784685
34477		0.084002	-0.567610	-0.027879	-0.818526	-7.993426	-69.049747	-162.777436
34478		0.083966	-0.567569	-0.027838	-0.818560	-7.994087	-69.043626	-162.783007
34479		0.083984	-0.567516	-0.027822	-0.818595	-7.996798	-69.035998	-162.780031
34480		0.083975	-0.567470	-0.027814	-0.818628	-7.993693	-69.029615	-162.784428
34481		0.084073	-0.567412	-0.027889	-0.818656	-7.987033	-69.022353	-162.776710
34482		0.084090	-0.567360	-0.027922	-0.818689	-7.977349	-69.015680	-162.782098
34483		0.083995	-0.567329	-0.027891	-0.818721	-7.965685	-69.011785	-162.804176
34484		0.084013	-0.567304	-0.027874	-0.818737	-7.971182	-69.007910	-162.798512
34485		0.084109	-0.567300	-0.027948	-0.818728	-7.969203	-69.007897	-162.786411
34486		0.084117	-0.567291	-0.027947	-0.818733	-7.970161	-69.006616	-162.784889
34487		0.084085	-0.567272	-0.027907	-0.818751	-7.972980	-69.003505	-162.787934
34488		0.084099	-0.567242	-0.027919	-0.818770	-7.970020	-68.999544	-162.788789
34489		0.084128	-0.567204	-0.027933	-0.818793	-7.968487	-68.994374	-162.786639
34490		0.084123	-0.567178	-0.027923	-0.818812	-7.968038	-68.990588	-162.788274
34491		0.084049	-0.567153	-0.027854	-0.818839	-7.970354	-68.986541	-162.797749
34492		0.084066	-0.567112	-0.027854	-0.818865	-7.969888	-68.980872	-162.796705
34493		0.084056	-0.567098	-0.027862	-0.818876	-7.964830	-68.979218	-162.801847
34494		0.084109	-0.567049	-0.027881	-0.818904	-7.965429	-68.972434	-162.795243
34495		0.084106	-0.567012	-0.027888	-0.818930	-7.959954	-68.967466	-162.800306
34496		0.084145	-0.566989	-0.027934	-0.818940	-7.953523	-68.964988	-162.799744
34497		0.084181	-0.566974	-0.027971	-0.818946	-7.949073	-68.963312	-162.798051
34498		0.084237	-0.566975	-0.027998	-0.818938	-7.952477	-68.963425	-162.787840
34499		0.084291	-0.566968	-0.028045	-0.818936	-7.949659	-68.962930	-162.782208
34500		0.084343	-0.566994	-0.028109	-0.818911	-7.944776	-68.967263	-162.777646
34501		0.084334	-0.566992	-0.028116	-0.818912	-7.941264	-68.967269	-162.781287
34502		0.084353	-0.567001	-0.028158	-0.818902	-7.934679	-68.969244	-162.782826
34503		0.084310	-0.566997	-0.028114	-0.818911	-7.937717	-68.968185	-162.786986
34504		0.084331	-0.566978	-0.028138	-0.818922	-7.933781	-68.965887	-162.787224
34505		0.084489	-0.566944	-0.028253	-0.818925	-7.930142	-68.962147	-162.768221
34506		0.084510	-0.566925	-0.028276	-0.818935	-7.926203	-68.959850	-162.768455
34507		0.084620	-0.566916	-0.028351	-0.818927	-7.926166	-68.959050	-162.753160
34508		0.084635	-0.566888	-0.028353	-0.818945	-7.925986	-68.955130	-162.751876
34509		0.084537	-0.566887	-0.028275	-0.818959	-7.928286	-68.954334	-162.764178
34510		0.084523	-0.566878	-0.028271	-0.818966	-7.926108	-68.953180	-162.767796
34511		0.084497	-0.566866	-0.028280	-0.818977	-7.917940	-68.951960	-162.777359
34512		0.084479	-0.566838	-0.028278	-0.818999	-7.913100	-68.948216	-162.783742
34513		0.084448	-0.566816	-0.028266	-0.819017	-7.908705	-68.945364	-162.791704
34514		0.084413	-0.566791	-0.028242	-0.819039	-7.906394	-68.941792	-162.798856
34515		0.084259	-0.566747	-0.028147	-0.819088	-7.899579	-68.935326	-162.826145
34516		0.084252	-0.566687	-0.028112	-0.819132	-7.902231	-68.926454	-162.826835
34517		0.084262	-0.566622	-0.028115	-0.819176	-7.897975	-68.917602	-162.829872
34518		0.084262	-0.566542	-0.028083	-0.819232	-7.899514	-68.906083	-162.830775
34519		0.084274	-0.566476	-0.028071	-0.819277	-7.899139	-68.896785	-162.831028
34520		0.084256	-0.566432	-0.028052	-0.819310	-7.897273	-68.890509	-162.835838
34521		0.084305	-0.566417	-0.028065	-0.819315	-7.901491	-68.888254	-162.826502
34522		0.084283	-0.566440	-0.028025	-0.819303	-7.909648	-68.890741	-162.823473
34523		0.084270	-0.566438	-0.027992	-0.819307	-7.915742	-68.889880	-162.821198
34524		0.084274	-0.566452	-0.027969	-0.819297	-7.923391	-68.891310	-162.815177
34525		0.084260	-0.566432	-0.027932	-0.819313	-7.928713	-68.888048	-162.813941
34526		0.084256	-0.566422	-0.027939	-0.819321	-7.925273	-68.886811	-162.817173
34527		0.084427	-0.566400	-0.028030	-0.819315	-7.931007	-68.884083	-162.789697
34528		0.084426	-0.566393	-0.028018	-0.819320	-7.933186	-68.882898	-162.788598
34529		0.084371	-0.566398	-0.027956	-0.819325	-7.939650	-68.882777	-162.791871
34530		0.084356	-0.566401	-0.027919	-0.819325	-7.946694	-68.882615	-162.789054
34531		0.084260	-0.566401	-0.027812	-0.819340	-7.956701	-68.881223	-162.795837
34532		0.084254	-0.566416	-0.027778	-0.819330	-7.965613	-68.882737	-162.790202
34533		0.084253	-0.566429	-0.027723	-0.819324	-7.980645	-68.883317	-162.779819
34534		0.084275	-0.566470	-0.027731	-0.819293	-7.985950	-68.888871	-162.772145
34535		0.084159	-0.566501	-0.027634	-0.819287	-7.992392	-68.892123	-162.783375
34536		0.084217	-0.566519	-0.027668	-0.819267	-7.995589	-68.894798	-162.772619
34537		0.084268	-0.566550	-0.027711	-0.819239	-7.996270	-68.899394	-162.764242
34538		0.084333	-0.566551	-0.027773	-0.819229	-7.992241	-68.900200	-162.757718
34539		0.084437	-0.566527	-0.027850	-0.819232	-7.989183	-68.897551	-162.745779
34540		0.084497	-0.566519	-0.027891	-0.819230	-7.988896	-68.896734	-162.737757
34541		0.084603	-0.566504	-0.027958	-0.819228	-7.989439	-68.894937	-162.722832
34542		0.084680	-0.566490	-0.027995	-0.819228	-7.992702	-68.893175	-162.710053
34543		0.084804	-0.566448	-0.028054	-0.819242	-7.996244	-68.887445	-162.691349
34544		0.084875	-0.566412	-0.028112	-0.819258	-7.991194	-68.883051	-162.685688
34545		0.084778	-0.566390	-0.028052	-0.819285	-7.987306	-68.879740	-162.702471
34546		0.084834	-0.566362	-0.028095	-0.819297	-7.984316	-68.876344	-162.697252
34547		0.084777	-0.566337	-0.028056	-0.819321	-7.982069	-68.872679	-162.707405
34548		0.084813	-0.566310	-0.028061	-0.819337	-7.984895	-68.868651	-162.701122
34549		0.084895	-0.566271	-0.028114	-0.819353	-7.982708	-68.863774	-162.692059
34550		0.084909	-0.566241	-0.028091	-0.819373	-7.988539	-68.859086	-162.686868
34551		0.084747	-0.566224	-0.027991	-0.819405	-7.983742	-68.856208	-162.713351
34552		0.084751	-0.566212	-0.028009	-0.819412	-7.978995	-68.854900	-162.716250
34553		0.084719	-0.566173	-0.027995	-0.819443	-7.973613	-68.849565	-162.725327
34554		0.084735	-0.566147	-0.028022	-0.819459	-7.967258	-68.846439	-162.728136
34555		0.084952	-0.566121	-0.028212	-0.819448	-7.955403	-68.844753	-162.706222
34556		0.084984	-0.566118	-0.028221	-0.819446	-7.958878	-68.844198	-162.699381
34557		0.084958	-0.566139	-0.028218	-0.819434	-7.956660	-68.847359	-162.704034
34558		0.084929	-0.566154	-0.028225	-0.819427	-7.950773	-68.849729	-162.711819
34559		0.084976	-0.566183	-0.028258	-0.819401	-7.953236	-68.853976	-162.702769
34560		0.084969	-0.566197	-0.028234	-0.819392	-7.959327	-68.855467	-162.699313
34561		0.084915	-0.566195	-0.028188	-0.819401	-7.961063	-68.854740	-162.705780
34562		0.084944	-0.566173	-0.028198	-0.819413	-7.961855	-68.851601	-162.701728
34563		0.084903	-0.566143	-0.028191	-0.819438	-7.953804	-68.847788	-162.713701
34564		0.084964	-0.566151	-0.028215	-0.819426	-7.959399	-68.848764	-162.701135
34565		0.085095	-0.566145	-0.028322	-0.819412	-7.955310	-68.848972	-162.685484
34566		0.085172	-0.566160	-0.028343	-0.819393	-7.964776	-68.850737	-162.667886
34567		0.085170	-0.566185	-0.028335	-0.819376	-7.968663	-68.854000	-162.664970
34568		0.085216	-0.566216	-0.028335	-0.819350	-7.979485	-68.857726	-162.650369
34569		0.085342	-0.566232	-0.028394	-0.819324	-7.988224	-68.859936	-162.626334
34570		0.085360	-0.566238	-0.028387	-0.819318	-7.993763	-68.860374	-162.619926
34571		0.085355	-0.566221	-0.028390	-0.819330	-7.990622	-68.858221	-162.623200
34572		0.085383	-0.566211	-0.028367	-0.819335	-8.000637	-68.856056	-162.612717
34573		0.085537	-0.566174	-0.028430	-0.819343	-8.009158	-68.850825	-162.586221
34574		0.085576	-0.566168	-0.028492	-0.819341	-7.999600	-68.850935	-162.587355
34575		0.085812	-0.566129	-0.028657	-0.819337	-7.996635	-68.846850	-162.557130
34576		0.085849	-0.566119	-0.028705	-0.819338	-7.990354	-68.846157	-162.556429
34577		0.085929	-0.566115	-0.028775	-0.819330	-7.986469	-68.846203	-162.547857
34578		0.085955	-0.566117	-0.028788	-0.819326	-7.987905	-68.846542	-162.543236
34579		0.085907	-0.566118	-0.028772	-0.819331	-7.983678	-68.846776	-162.552698
34580		0.085882	-0.566121	-0.028733	-0.819332	-7.989172	-68.846675	-162.552433
34581		0.085565	-0.566165	-0.028508	-0.819343	-7.993559	-68.851003	-162.592969
34582		0.085549	-0.566165	-0.028456	-0.819347	-8.003869	-68.850034	-162.588348
34583		0.085513	-0.566199	-0.028400	-0.819328	-8.014527	-68.853944	-162.585254
34584		0.085513	-0.566239	-0.028381	-0.819302	-8.022840	-68.858844	-162.578664
34585		0.085477	-0.566261	-0.028336	-0.819292	-8.029440	-68.861258	-162.578737
34586		0.085483	-0.566278	-0.028329	-0.819279	-8.033780	-68.863494	-162.574578
34587		0.085494	-0.566318	-0.028332	-0.819251	-8.038292	-68.868760	-162.569034
34588		0.085470	-0.566369	-0.028310	-0.819219	-8.043888	-68.875520	-162.567215
34589		0.085281	-0.566423	-0.028168	-0.819206	-8.050853	-68.881700	-162.587760
34590		0.085248	-0.566462	-0.028178	-0.819182	-8.045638	-68.887558	-162.594966
34591		0.085366	-0.566491	-0.028240	-0.819148	-8.053255	-68.891668	-162.572600
34592		0.085342	-0.566498	-0.028217	-0.819146	-8.055459	-68.892376	-162.574189
34593		0.085382	-0.566503	-0.028235	-0.819138	-8.058473	-68.893079	-162.566472
34594		0.085381	-0.566498	-0.028248	-0.819141	-8.054474	-68.892696	-162.569460
34595		0.085457	-0.566490	-0.028318	-0.819136	-8.049752	-68.892279	-162.562076
34596		0.085488	-0.566499	-0.028328	-0.819126	-8.053532	-68.893462	-162.554967
34597		0.085354	-0.566546	-0.028262	-0.819110	-8.050245	-68.899760	-162.574864
34598		0.085365	-0.566573	-0.028276	-0.819090	-8.050826	-68.903634	-162.572208
34599		0.085315	-0.566595	-0.028269	-0.819080	-8.045330	-68.906895	-162.582540
34600		0.085328	-0.566624	-0.028274	-0.819059	-8.048731	-68.910788	-162.577716
34601		0.085325	-0.566633	-0.028269	-0.819053	-8.050318	-68.911966	-162.576836
34602		0.085328	-0.566633	-0.028254	-0.819053	-8.054777	-68.911641	-162.573317
34603		0.085183	-0.566613	-0.028139	-0.819086	-8.056243	-68.907903	-162.593308
34604		0.085184	-0.566611	-0.028134	-0.819087	-8.057875	-68.907559	-162.591973
34605		0.085118	-0.566600	-0.028097	-0.819103	-8.054454	-68.905930	-162.603889
34606		0.085139	-0.566581	-0.028087	-0.819115	-8.059278	-68.902896	-162.598116
34607		0.085115	-0.566591	-0.028108	-0.819109	-8.050383	-68.905020	-162.607294
34608		0.085153	-0.566598	-0.028138	-0.819100	-8.050034	-68.906105	-162.602027
34609		0.085182	-0.566624	-0.028175	-0.819077	-8.048026	-68.910162	-162.598614
34610		0.085219	-0.566656	-0.028199	-0.819050	-8.051198	-68.914739	-162.590565
34611		0.085317	-0.566670	-0.028277	-0.819028	-8.050086	-68.917236	-162.577063
34612		0.085370	-0.566683	-0.028340	-0.819011	-8.044673	-68.919882	-162.572945
34613		0.085313	-0.566688	-0.028335	-0.819014	-8.035973	-68.921001	-162.586746
34614		0.085353	-0.566698	-0.028381	-0.819001	-8.032308	-68.922902	-162.583341
34615		0.085268	-0.566727	-0.028353	-0.818991	-8.026678	-68.927075	-162.598469
34616		0.085291	-0.566756	-0.028359	-0.818968	-8.031598	-68.930911	-162.591134
34617		0.085290	-0.566777	-0.028346	-0.818954	-8.036436	-68.933476	-162.587506
34618		0.085306	-0.566795	-0.028340	-0.818940	-8.042299	-68.935655	-162.580838
34619		0.085480	-0.566826	-0.028428	-0.818897	-8.053874	-68.940116	-162.547670
34620		0.085497	-0.566875	-0.028432	-0.818862	-8.059977	-68.946597	-162.540041
34621		0.085539	-0.566938	-0.028437	-0.818814	-8.071503	-68.954905	-162.524656
34622		0.085575	-0.566969	-0.028436	-0.818789	-8.080807	-68.958694	-162.512575
34623		0.085592	-0.566994	-0.028454	-0.818769	-8.081451	-68.962364	-162.509073
34624		0.085630	-0.567000	-0.028484	-0.818759	-8.081075	-68.963462	-162.503829
34625		0.085626	-0.566999	-0.028484	-0.818760	-8.080238	-68.963371	-162.505018
34626		0.085633	-0.566991	-0.028483	-0.818766	-8.081022	-68.962129	-162.503686
34627		0.085548	-0.566998	-0.028416	-0.818772	-8.083517	-68.962567	-162.513783
34628		0.085548	-0.566981	-0.028428	-0.818783	-8.079099	-68.960466	-162.517163
34629		0.085576	-0.566956	-0.028394	-0.818799	-8.090820	-68.956091	-162.505912
34630		0.085582	-0.566932	-0.028410	-0.818814	-8.085575	-68.953084	-162.509269
34631		0.085534	-0.566914	-0.028381	-0.818833	-8.082973	-68.950457	-162.518133
34632		0.085528	-0.566916	-0.028390	-0.818832	-8.079737	-68.951003	-162.521224
34633		0.085490	-0.566941	-0.028379	-0.818819	-8.077605	-68.954515	-162.527406
34634		0.085463	-0.566958	-0.028368	-0.818810	-8.077316	-68.956958	-162.530903
34635		0.085358	-0.566950	-0.028272	-0.818830	-8.082066	-68.954867	-162.542750
34636		0.085301	-0.566971	-0.028272	-0.818821	-8.073852	-68.958317	-162.555731
34637		0.085409	-0.566985	-0.028337	-0.818798	-8.077545	-68.960496	-162.537718
34638		0.085358	-0.566983	-0.028290	-0.818806	-8.080427	-68.959704	-162.542917
34639		0.085268	-0.566983	-0.028227	-0.818818	-8.080243	-68.959225	-162.555781
34640		0.085230	-0.566984	-0.028197	-0.818822	-8.081358	-68.959181	-162.560288
34641		0.085207	-0.566973	-0.028179	-0.818833	-8.080813	-68.957559	-162.564164
34642		0.085168	-0.566973	-0.028158	-0.818837	-8.079092	-68.957502	-162.570856
34643		0.085130	-0.566978	-0.028138	-0.818839	-8.077674	-68.958110	-162.577136
34644		0.085087	-0.566989	-0.028128	-0.818836	-8.073470	-68.959775	-162.585703
34645		0.085193	-0.567009	-0.028186	-0.818809	-8.079414	-68.962656	-162.566315
34646		0.085140	-0.567036	-0.028191	-0.818796	-8.070715	-68.966936	-162.578960
34647		0.085053	-0.567058	-0.028156	-0.818791	-8.065923	-68.970171	-162.593945
34648		0.085028	-0.567066	-0.028168	-0.818788	-8.059119	-68.971675	-162.601798
34649		0.085011	-0.567066	-0.028196	-0.818788	-8.048654	-68.972434	-162.611372
34650		0.084961	-0.567052	-0.028182	-0.818804	-8.042191	-68.970691	-162.623110
34651		0.084911	-0.567033	-0.028202	-0.818822	-8.026610	-68.969007	-162.641168
34652		0.084856	-0.567009	-0.028165	-0.818845	-8.023930	-68.965622	-162.651383
34653		0.084736	-0.567002	-0.028074	-0.818866	-8.025115	-68.963835	-162.667584
34654		0.084705	-0.567000	-0.028099	-0.818869	-8.013100	-68.964478	-162.680151
34655		0.084549	-0.567027	-0.028038	-0.818869	-8.002910	-68.968341	-162.708326
34656		0.084541	-0.567042	-0.028048	-0.818859	-8.000001	-68.970622	-162.711129
34657		0.084621	-0.567055	-0.028095	-0.818840	-8.003419	-68.972658	-162.697176
34658		0.084657	-0.567060	-0.028135	-0.818832	-8.000178	-68.973739	-162.694144
34659		0.084691	-0.567078	-0.028165	-0.818814	-8.000030	-68.976550	-162.689131
34660		0.084760	-0.567084	-0.028200	-0.818801	-8.004254	-68.977453	-162.676276
34661		0.084875	-0.567088	-0.028248	-0.818786	-8.012862	-68.977814	-162.654186
34662		0.084963	-0.567089	-0.028280	-0.818775	-8.020637	-68.977760	-162.636575
34663		0.085077	-0.567105	-0.028356	-0.818749	-8.023159	-68.980379	-162.618319
34664		0.085144	-0.567122	-0.028401	-0.818729	-8.024882	-68.983010	-162.607348
34665		0.085002	-0.567132	-0.028317	-0.818739	-8.021827	-68.984006	-162.629162
34666		0.085029	-0.567152	-0.028337	-0.818722	-8.023063	-68.986930	-162.624004
34667		0.085021	-0.567153	-0.028355	-0.818721	-8.017151	-68.987563	-162.629084
34668		0.085017	-0.567145	-0.028388	-0.818726	-8.007359	-68.987182	-162.636578
34669		0.085071	-0.567096	-0.028431	-0.818753	-8.002062	-68.980805	-162.633760
34670		0.085075	-0.567056	-0.028465	-0.818779	-7.990735	-68.976042	-162.641855
34671		0.085092	-0.567008	-0.028485	-0.818810	-7.984627	-68.969782	-162.644721
34672		0.085085	-0.566950	-0.028476	-0.818851	-7.980886	-68.961733	-162.649758
34673		0.084996	-0.566892	-0.028395	-0.818904	-7.980783	-68.953023	-162.663721
34674		0.084983	-0.566838	-0.028355	-0.818943	-7.984025	-68.945083	-162.664736
34675		0.084985	-0.566781	-0.028364	-0.818983	-7.977408	-68.937371	-162.670366
34676		0.084984	-0.566731	-0.028342	-0.819018	-7.978872	-68.930180	-162.670694
34677		0.085047	-0.566702	-0.028422	-0.819029	-7.966910	-68.927265	-162.670773
34678		0.085025	-0.566682	-0.028406	-0.819045	-7.965537	-68.924506	-162.675218
34679		0.084869	-0.566702	-0.028312	-0.819051	-7.963248	-68.926730	-162.698308
34680		0.084865	-0.566708	-0.028302	-0.819048	-7.965651	-68.927313	-162.697057
34681		0.084787	-0.566692	-0.028259	-0.819068	-7.961371	-68.925109	-162.711225
34682		0.084809	-0.566678	-0.028299	-0.819075	-7.953833	-68.923690	-162.713607
34683		0.084924	-0.566656	-0.028420	-0.819073	-7.941594	-68.922218	-162.706340
34684		0.084972	-0.566634	-0.028468	-0.819082	-7.936294	-68.919763	-162.703621
34685		0.084964	-0.566635	-0.028475	-0.819082	-7.932975	-68.920111	-162.707062
34686		0.085007	-0.566620	-0.028519	-0.819086	-7.928497	-68.918565	-162.704371
34687		0.085223	-0.566601	-0.028684	-0.819071	-7.923314	-68.917369	-162.677977
34688		0.085247	-0.566588	-0.028715	-0.819077	-7.918603	-68.915969	-162.678170
34689		0.085263	-0.566564	-0.028689	-0.819093	-7.926215	-68.911948	-162.671353
34690		0.085268	-0.566538	-0.028680	-0.819111	-7.927074	-68.908156	-162.670707
34691		0.085262	-0.566519	-0.028669	-0.819125	-7.927378	-68.905407	-162.671691
34692		0.085290	-0.566508	-0.028647	-0.819130	-7.937331	-68.903247	-162.661288
34693		0.085265	-0.566512	-0.028685	-0.819129	-7.923368	-68.904733	-162.674180
34694		0.085303	-0.566502	-0.028698	-0.819131	-7.925857	-68.903297	-162.667473
34695		0.085383	-0.566491	-0.028785	-0.819127	-7.917407	-68.902920	-162.662101
34696		0.085441	-0.566482	-0.028836	-0.819126	-7.913961	-68.902145	-162.656550
34697		0.085486	-0.566473	-0.028889	-0.819125	-7.907673	-68.901641	-162.654635
34698		0.085544	-0.566450	-0.028948	-0.819133	-7.901023	-68.899121	-162.651594
34699		0.085585	-0.566404	-0.028972	-0.819159	-7.898464	-68.893046	-162.648766
34700		0.085650	-0.566375	-0.028992	-0.819172	-7.902806	-68.888843	-162.637301
34701		0.085800	-0.566342	-0.029087	-0.819176	-7.902645	-68.884939	-162.617121
34702		0.085856	-0.566329	-0.029122	-0.819178	-7.902490	-68.883356	-162.609733
34703		0.085901	-0.566307	-0.029169	-0.819186	-7.896838	-68.880907	-162.607723
34704		0.085955	-0.566292	-0.029214	-0.819189	-7.893835	-68.879314	-162.602528
34705		0.086060	-0.566276	-0.029283	-0.819187	-7.893842	-68.877535	-162.588109
34706		0.086083	-0.566261	-0.029288	-0.819195	-7.895247	-68.875346	-162.584284
34707		0.085991	-0.566222	-0.029216	-0.819234	-7.893894	-68.869432	-162.599203
34708		0.086014	-0.566192	-0.029230	-0.819252	-7.892097	-68.865497	-162.597890
34709		0.086084	-0.566173	-0.029303	-0.819255	-7.884427	-68.863689	-162.593667
34710		0.086132	-0.566149	-0.029326	-0.819266	-7.885198	-68.860454	-162.586963
34711		0.086065	-0.566150	-0.029292	-0.819273	-7.882011	-68.860566	-162.598522
34712		0.086071	-0.566154	-0.029293	-0.819270	-7.883077	-68.861086	-162.596937
34713		0.086078	-0.566164	-0.029305	-0.819262	-7.882117	-68.862644	-162.596352
34714		0.086050	-0.566180	-0.029268	-0.819255	-7.887961	-68.864299	-162.595813
34715		0.085988	-0.566197	-0.029209	-0.819252	-7.893156	-68.865901	-162.600661
34716		0.085957	-0.566177	-0.029157	-0.819271	-7.899230	-68.862427	-162.601428
34717		0.085906	-0.566143	-0.029136	-0.819300	-7.892617	-68.857907	-162.613932
34718		0.085894	-0.566106	-0.029079	-0.819329	-7.901854	-68.851738	-162.610297
34719		0.085759	-0.566100	-0.028963	-0.819352	-7.907012	-68.849827	-162.625841
34720		0.085750	-0.566083	-0.028939	-0.819365	-7.909978	-68.847031	-162.625596
34721		0.085792	-0.566092	-0.028984	-0.819353	-7.906809	-68.848876	-162.621591
34722		0.085762	-0.566105	-0.028966	-0.819348	-7.906975	-68.850510	-162.625425
34723		0.085782	-0.566106	-0.028994	-0.819344	-7.903653	-68.851082	-162.624806
34724		0.085755	-0.566122	-0.028957	-0.819337	-7.909494	-68.852738	-162.624269
34725		0.085600	-0.566109	-0.028826	-0.819367	-7.914006	-68.849633	-162.643325
34726		0.085606	-0.566084	-0.028843	-0.819383	-7.908667	-68.846660	-162.646760
34727		0.085499	-0.566074	-0.028781	-0.819403	-7.904456	-68.844954	-162.664852
34728		0.085485	-0.566051	-0.028786	-0.819420	-7.898906	-68.842126	-162.671164
34729		0.085613	-0.566025	-0.028868	-0.819423	-7.898785	-68.838949	-162.653860
34730		0.085593	-0.566021	-0.028834	-0.819428	-7.903424	-68.837965	-162.653638
34731		0.085639	-0.566008	-0.028856	-0.819432	-7.904933	-68.836233	-162.646466
34732		0.085637	-0.565999	-0.028820	-0.819439	-7.913093	-68.834286	-162.641520
34733		0.085617	-0.565995	-0.028763	-0.819446	-7.923692	-68.832665	-162.637182
34734		0.085583	-0.565974	-0.028755	-0.819465	-7.917933	-68.829981	-162.646358
34735		0.085591	-0.565939	-0.028747	-0.819488	-7.918567	-68.825029	-162.645746
34736		0.085585	-0.565913	-0.028737	-0.819507	-7.917850	-68.821316	-162.647672
34737		0.085494	-0.565909	-0.028684	-0.819521	-7.914605	-68.820510	-162.662832
34738		0.085497	-0.565897	-0.028703	-0.819529	-7.909624	-68.819272	-162.665944
34739		0.085735	-0.565884	-0.028851	-0.819508	-7.913240	-68.818280	-162.630387
34740		0.085743	-0.565877	-0.028876	-0.819510	-7.907782	-68.817871	-162.633157
34741		0.085723	-0.565897	-0.028858	-0.819499	-7.910403	-68.820399	-162.633708
34742		0.085701	-0.565906	-0.028826	-0.819496	-7.915401	-68.821149	-162.633156
34743		0.085771	-0.565909	-0.028864	-0.819486	-7.918465	-68.821679	-162.621127
34744		0.085766	-0.565897	-0.028846	-0.819495	-7.920944	-68.819712	-162.620543
34745		0.085699	-0.565891	-0.028794	-0.819508	-7.921826	-68.818450	-162.629501
34746		0.085668	-0.565888	-0.028759	-0.819515	-7.924939	-68.817534	-162.631799
34747		0.085521	-0.565874	-0.028648	-0.819544	-7.925832	-68.814804	-162.652224
34748		0.085502	-0.565856	-0.028588	-0.819560	-7.936246	-68.811277	-162.648301
34749		0.085369	-0.565829	-0.028473	-0.819597	-7.939439	-68.806533	-162.665526
34750		0.085352	-0.565818	-0.028489	-0.819606	-7.931410	-68.805432	-162.673693
34751		0.085202	-0.565814	-0.028384	-0.819628	-7.931130	-68.804150	-162.694986
34752		0.085204	-0.565798	-0.028387	-0.819638	-7.929450	-68.802096	-162.696265
34753		0.085202	-0.565802	-0.028372	-0.819636	-7.933250	-68.802315	-162.693810
34754		0.085226	-0.565803	-0.028395	-0.819633	-7.931663	-68.802678	-162.691561
34755		0.085244	-0.565803	-0.028407	-0.819630	-7.931803	-68.802731	-162.688967
34756		0.085224	-0.565829	-0.028382	-0.819615	-7.936688	-68.806044	-162.687772
34757		0.085305	-0.565843	-0.028410	-0.819596	-7.945183	-68.807760	-162.670343
34758		0.085324	-0.565865	-0.028386	-0.819580	-7.956625	-68.809970	-162.659378
34759		0.085372	-0.565866	-0.028415	-0.819573	-7.957864	-68.810336	-162.651677
34760		0.085413	-0.565848	-0.028443	-0.819580	-7.956576	-68.807991	-162.647232
34761		0.085542	-0.565842	-0.028536	-0.819567	-7.955606	-68.807938	-162.629925
34762		0.085554	-0.565827	-0.028540	-0.819577	-7.955431	-68.805817	-162.628686
34763		0.085534	-0.565799	-0.028517	-0.819599	-7.955358	-68.801790	-162.632346
34764		0.085570	-0.565804	-0.028557	-0.819590	-7.951963	-68.802906	-162.629426
34765		0.085472	-0.565799	-0.028520	-0.819605	-7.943561	-68.802427	-162.648958
34766		0.085514	-0.565780	-0.028513	-0.819614	-7.951242	-68.799281	-162.638318
34767		0.085613	-0.565749	-0.028581	-0.819623	-7.949025	-68.795519	-162.626675
34768		0.085630	-0.565711	-0.028573	-0.819648	-7.950933	-68.789941	-162.623932
34769		0.085558	-0.565682	-0.028516	-0.819677	-7.950062	-68.785546	-162.635369
34770		0.085549	-0.565666	-0.028518	-0.819689	-7.946842	-68.783566	-162.639190
34771		0.085669	-0.565636	-0.028579	-0.819695	-7.950006	-68.779607	-162.620992
34772		0.085662	-0.565641	-0.028614	-0.819691	-7.940535	-68.781003	-162.628165
34773		0.085672	-0.565629	-0.028597	-0.819699	-7.945559	-68.778929	-162.623724
34774		0.085676	-0.565617	-0.028615	-0.819706	-7.940540	-68.777701	-162.626867
34775		0.085697	-0.565611	-0.028625	-0.819707	-7.941328	-68.776909	-162.623443
34776		0.085677	-0.565594	-0.028600	-0.819723	-7.942736	-68.774185	-162.625756
34777		0.085687	-0.565568	-0.028587	-0.819740	-7.945667	-68.770292	-162.622990
34778		0.085685	-0.565547	-0.028584	-0.819755	-7.944430	-68.767415	-162.624625
34779		0.085542	-0.565522	-0.028478	-0.819790	-7.943822	-68.763192	-162.645819
34780		0.085522	-0.565521	-0.028470	-0.819794	-7.942290	-68.763022	-162.649648
34781		0.085694	-0.565516	-0.028605	-0.819774	-7.938261	-68.763605	-162.628292
34782		0.085704	-0.565511	-0.028585	-0.819777	-7.944579	-68.762406	-162.622715
34783		0.085790	-0.565502	-0.028656	-0.819772	-7.940949	-68.761826	-162.613406
34784		0.085791	-0.565501	-0.028651	-0.819773	-7.942441	-68.761517	-162.612189
34785		0.085652	-0.565490	-0.028559	-0.819798	-7.940207	-68.759490	-162.633495
34786		0.085646	-0.565476	-0.028516	-0.819810	-7.948792	-68.756710	-162.628935
34787		0.085626	-0.565437	-0.028497	-0.819840	-7.947055	-68.751234	-162.633869
34788		0.085628	-0.565391	-0.028456	-0.819873	-7.954037	-68.744084	-162.629987
34789		0.085590	-0.565335	-0.028402	-0.819917	-7.956185	-68.735721	-162.635246
34790		0.085591	-0.565275	-0.028404	-0.819958	-7.950980	-68.727639	-162.640080
34791		0.085641	-0.565197	-0.028427	-0.820006	-7.947684	-68.716951	-162.637210
34792		0.085645	-0.565141	-0.028444	-0.820044	-7.939177	-68.709692	-162.643877
34793		0.085651	-0.565096	-0.028493	-0.820072	-7.924348	-68.704525	-162.654102
34794		0.085680	-0.565064	-0.028562	-0.820089	-7.909318	-68.701325	-162.660916
34795		0.085679	-0.565059	-0.028586	-0.820091	-7.902796	-68.701203	-162.665565
34796		0.085716	-0.565064	-0.028626	-0.820083	-7.899355	-68.702326	-162.662676
34797		0.085622	-0.565051	-0.028563	-0.820104	-7.897713	-68.700193	-162.677244
34798		0.085674	-0.565063	-0.028602	-0.820089	-7.898127	-68.702084	-162.669342
34799		0.085744	-0.565041	-0.028681	-0.820094	-7.888858	-68.700142	-162.666251
34800		0.085748	-0.565028	-0.028674	-0.820103	-7.889960	-68.698106	-162.665393
34801		0.085689	-0.565023	-0.028611	-0.820115	-7.895071	-68.696700	-162.670283
34802		0.085658	-0.565005	-0.028585	-0.820131	-7.894962	-68.694050	-162.675123
34803		0.085701	-0.564978	-0.028628	-0.820143	-7.889259	-68.690910	-162.673647
34804		0.085681	-0.564949	-0.028636	-0.820165	-7.881311	-68.687268	-162.682499
34805		0.085777	-0.564906	-0.028717	-0.820182	-7.874320	-68.682150	-162.674764
34806		0.085747	-0.564888	-0.028690	-0.820199	-7.874213	-68.679500	-162.679595
34807		0.085602	-0.564866	-0.028619	-0.820231	-7.864868	-68.676382	-162.706735
34808		0.085571	-0.564848	-0.028592	-0.820248	-7.864760	-68.673733	-162.711570
34809		0.085686	-0.564824	-0.028645	-0.820250	-7.869678	-68.670471	-162.692754
34810		0.085623	-0.564819	-0.028581	-0.820263	-7.874398	-68.668953	-162.698591
34811		0.085535	-0.564809	-0.028477	-0.820283	-7.884356	-68.666272	-162.704402
34812		0.085484	-0.564805	-0.028404	-0.820294	-7.893405	-68.664692	-162.705560
34813		0.085424	-0.564799	-0.028362	-0.820305	-7.892948	-68.663600	-162.714478
34814		0.085420	-0.564776	-0.028368	-0.820321	-7.888863	-68.660721	-162.718299
34815		0.085468	-0.564744	-0.028390	-0.820338	-7.889065	-68.656313	-162.712307
34816		0.085478	-0.564713	-0.028412	-0.820357	-7.882804	-68.652453	-162.715789
34817		0.085519	-0.564680	-0.028455	-0.820374	-7.876556	-68.648476	-162.715138
34818		0.085526	-0.564657	-0.028462	-0.820388	-7.873973	-68.645528	-162.716446
34819		0.085623	-0.564628	-0.028525	-0.820396	-7.873023	-68.641933	-162.704142
34820		0.085596	-0.564616	-0.028504	-0.820408	-7.872439	-68.640112	-162.708627
34821		0.085580	-0.564568	-0.028489	-0.820444	-7.869689	-68.633371	-162.713881
34822		0.085596	-0.564513	-0.028464	-0.820480	-7.874455	-68.625247	-162.709695
34823		0.085572	-0.564488	-0.028463	-0.820500	-7.868354	-68.622054	-162.717804
34824		0.085603	-0.564455	-0.028498	-0.820518	-7.862261	-68.618052	-162.718445
34825		0.085632	-0.564445	-0.028543	-0.820521	-7.855178	-68.617279	-162.719367
34826		0.085664	-0.564430	-0.028585	-0.820526	-7.848979	-68.615838	-162.719337
34827		0.085695	-0.564399	-0.028667	-0.820541	-7.831195	-68.613077	-162.727806
34828		0.085704	-0.564381	-0.028691	-0.820552	-7.825300	-68.610955	-162.730952
34829		0.085544	-0.564386	-0.028598	-0.820568	-7.821056	-68.611318	-162.756096
34830		0.085556	-0.564369	-0.028577	-0.820580	-7.826938	-68.608392	-162.750910
34831		0.085685	-0.564343	-0.028664	-0.820581	-7.825536	-68.605477	-162.734410
34832		0.085702	-0.564307	-0.028682	-0.820604	-7.821235	-68.600727	-162.735731
34833		0.085605	-0.564291	-0.028642	-0.820626	-7.812736	-68.598770	-162.755547
34834		0.085617	-0.564278	-0.028672	-0.820632	-7.806356	-68.597478	-162.758367
34835		0.085599	-0.564267	-0.028703	-0.820641	-7.794503	-68.596772	-162.769221
34836		0.085605	-0.564245	-0.028746	-0.820654	-7.782945	-68.594642	-162.776717
34837		0.085514	-0.564216	-0.028694	-0.820685	-7.777638	-68.590464	-162.793723
34838		0.085516	-0.564217	-0.028714	-0.820684	-7.772953	-68.590980	-162.796552
34839		0.085475	-0.564208	-0.028700	-0.820694	-7.768615	-68.589914	-162.805498
34840		0.085509	-0.564195	-0.028733	-0.820699	-7.765212	-68.588485	-162.803333
34841		0.085497	-0.564185	-0.028743	-0.820707	-7.759893	-68.587424	-162.808805
34842		0.085494	-0.564193	-0.028758	-0.820701	-7.756054	-68.588844	-162.811640
34843		0.085437	-0.564192	-0.028748	-0.820708	-7.748369	-68.588973	-162.824929
34844		0.085431	-0.564179	-0.028730	-0.820718	-7.750766	-68.587017	-162.824433
34845		0.085509	-0.564173	-0.028793	-0.820712	-7.748339	-68.586701	-162.815149
34846		0.085525	-0.564135	-0.028820	-0.820735	-7.741193	-68.581950	-162.818663
34847		0.085357	-0.564093	-0.028738	-0.820785	-7.728891	-68.576087	-162.851549
34848		0.085348	-0.564049	-0.028756	-0.820815	-7.719240	-68.570647	-162.860401
34849		0.085290	-0.564017	-0.028727	-0.820844	-7.713864	-68.566265	-162.872877
34850		0.085247	-0.564012	-0.028700	-0.820853	-7.712633	-68.565420	-162.879883
34851		0.085245	-0.563996	-0.028718	-0.820863	-7.706397	-68.563621	-162.884833
34852		0.085243	-0.563992	-0.028732	-0.820866	-7.702177	-68.563309	-162.888013
34853		0.085226	-0.563971	-0.028700	-0.820883	-7.705515	-68.560012	-162.888685
34854		0.085185	-0.563972	-0.028715	-0.820886	-7.694844	-68.560806	-162.901526
34855		0.085079	-0.563978	-0.028655	-0.820895	-7.691586	-68.561450	-162.918543
34856		0.085080	-0.563977	-0.028650	-0.820896	-7.693013	-68.561149	-162.917395
34857		0.085156	-0.563971	-0.028720	-0.820890	-7.688357	-68.561014	-162.910046
34858		0.085163	-0.563951	-0.028753	-0.820902	-7.679603	-68.558891	-162.915400
34859		0.085058	-0.563934	-0.028730	-0.820925	-7.665422	-68.557169	-162.940193
34860		0.085061	-0.563920	-0.028724	-0.820935	-7.666477	-68.555139	-162.939380
34861		0.085012	-0.563894	-0.028715	-0.820958	-7.658126	-68.551792	-162.952424
34862		0.084971	-0.563890	-0.028678	-0.820966	-7.659717	-68.550954	-162.957268
34863		0.085012	-0.563874	-0.028704	-0.820972	-7.659140	-68.548861	-162.952220
34864		0.084989	-0.563839	-0.028707	-0.820998	-7.651677	-68.544399	-162.961397
34865		0.084944	-0.563764	-0.028691	-0.821055	-7.641825	-68.534341	-162.976081
34866		0.084924	-0.563733	-0.028674	-0.821079	-7.640014	-68.529890	-162.980923
34867		0.084854	-0.563713	-0.028660	-0.821100	-7.629759	-68.527607	-162.997996
34868		0.084847	-0.563713	-0.028644	-0.821102	-7.632510	-68.527382	-162.997187
34869		0.084694	-0.563722	-0.028570	-0.821114	-7.625062	-68.528471	-163.023504
34870		0.084661	-0.563717	-0.028544	-0.821122	-7.625317	-68.527557	-163.028023
34871		0.084648	-0.563708	-0.028542	-0.821129	-7.622804	-68.526477	-163.031840
34872		0.084610	-0.563696	-0.028520	-0.821142	-7.620719	-68.524730	-163.038854
34873		0.084579	-0.563696	-0.028501	-0.821146	-7.620211	-68.524643	-163.043458
34874		0.084533	-0.563688	-0.028493	-0.821156	-7.613327	-68.523787	-163.054802
34875		0.084395	-0.563689	-0.028416	-0.821173	-7.608737	-68.523563	-163.077198
34876		0.084377	-0.563675	-0.028406	-0.821185	-7.606806	-68.521671	-163.081390
34877		0.084264	-0.563651	-0.028345	-0.821215	-7.600483	-68.518191	-163.102017
34878		0.084251	-0.563630	-0.028341	-0.821231	-7.597701	-68.515396	-163.106213
34879		0.084098	-0.563612	-0.028273	-0.821261	-7.586439	-68.512912	-163.135767
34880		0.084076	-0.563609	-0.028274	-0.821266	-7.582045	-68.512744	-163.141807
34881		0.083989	-0.563608	-0.028234	-0.821276	-7.576804	-68.512663	-163.157586
34882		0.083967	-0.563603	-0.028210	-0.821283	-7.578543	-68.511680	-163.159629
34883		0.083815	-0.563611	-0.028121	-0.821296	-7.574815	-68.512357	-163.183309
34884		0.083754	-0.563625	-0.028090	-0.821293	-7.573295	-68.514218	-163.192517
34885		0.083572	-0.563643	-0.027971	-0.821304	-7.572559	-68.515951	-163.218175
34886		0.083531	-0.563672	-0.027969	-0.821288	-7.568239	-68.520217	-163.226079
34887		0.083454	-0.563701	-0.027944	-0.821277	-7.563233	-68.524350	-163.239685
34888		0.083402	-0.563700	-0.027931	-0.821284	-7.557180	-68.524398	-163.251074
34889		0.083260	-0.563684	-0.027866	-0.821311	-7.547494	-68.522306	-163.277781
34890		0.083190	-0.563686	-0.027831	-0.821318	-7.544108	-68.522506	-163.289835
34891		0.083117	-0.563681	-0.027791	-0.821330	-7.540858	-68.521597	-163.302469
34892		0.083076	-0.563679	-0.027780	-0.821336	-7.536292	-68.521573	-163.311368
34893		0.083038	-0.563646	-0.027763	-0.821363	-7.531327	-68.517127	-163.320825
34894		0.082985	-0.563629	-0.027733	-0.821381	-7.528226	-68.514624	-163.330703
34895		0.082960	-0.563634	-0.027717	-0.821381	-7.528382	-68.515234	-163.334010
34896		0.082925	-0.563641	-0.027693	-0.821380	-7.528978	-68.516051	-163.338247
34897		0.082928	-0.563633	-0.027707	-0.821385	-7.525225	-68.515221	-163.340574
34898		0.082933	-0.563637	-0.027708	-0.821381	-7.526133	-68.515744	-163.339158
34899		0.082925	-0.563650	-0.027700	-0.821373	-7.527953	-68.517429	-163.338742
34900		0.082915	-0.563675	-0.027686	-0.821358	-7.531399	-68.520664	-163.337337
34901		0.082938	-0.563704	-0.027700	-0.821336	-7.534289	-68.524540	-163.331437
34902		0.082922	-0.563736	-0.027682	-0.821316	-7.538582	-68.528679	-163.330033
34903		0.082881	-0.563746	-0.027648	-0.821314	-7.540659	-68.529776	-163.334171
34904		0.082864	-0.563748	-0.027621	-0.821316	-7.544723	-68.529627	-163.333745
34905		0.082751	-0.563736	-0.027536	-0.821338	-7.545478	-68.527412	-163.349343
34906		0.082772	-0.563719	-0.027551	-0.821347	-7.543837	-68.525223	-163.347933
34907		0.082765	-0.563698	-0.027551	-0.821362	-7.541126	-68.522436	-163.351192
34908		0.082790	-0.563689	-0.027598	-0.821364	-7.532847	-68.521890	-163.353470
34909		0.082745	-0.563697	-0.027618	-0.821362	-7.520513	-68.523840	-163.367929
34910		0.082790	-0.563698	-0.027645	-0.821356	-7.521716	-68.524071	-163.360883
34911		0.082813	-0.563723	-0.027678	-0.821336	-7.519265	-68.527903	-163.358714
34912		0.082824	-0.563750	-0.027693	-0.821315	-7.519538	-68.531814	-163.356340
34913		0.082698	-0.563782	-0.027631	-0.821309	-7.515521	-68.535972	-163.376002
34914		0.082680	-0.563812	-0.027622	-0.821290	-7.516976	-68.540107	-163.376787
34915		0.082671	-0.563837	-0.027596	-0.821274	-7.524005	-68.543064	-163.372764
34916		0.082658	-0.563847	-0.027600	-0.821269	-7.521419	-68.544559	-163.376049
34917		0.082579	-0.563865	-0.027602	-0.821264	-7.508475	-68.547860	-163.395455
34918		0.082596	-0.563843	-0.027611	-0.821277	-7.507303	-68.544849	-163.394401
34919		0.082621	-0.563828	-0.027651	-0.821284	-7.500631	-68.543405	-163.395730
34920		0.082585	-0.563848	-0.027628	-0.821275	-7.501569	-68.545958	-163.399672
34921		0.082404	-0.563891	-0.027519	-0.821267	-7.500571	-68.551273	-163.424689
34922		0.082331	-0.563943	-0.027445	-0.821241	-7.510415	-68.557601	-163.427117
34923		0.082279	-0.564002	-0.027414	-0.821207	-7.513625	-68.565440	-163.430942
34924		0.082206	-0.564071	-0.027357	-0.821169	-7.520497	-68.574323	-163.434895
34925		0.082071	-0.564138	-0.027247	-0.821139	-7.529872	-68.582580	-163.445975
34926		0.081975	-0.564217	-0.027163	-0.821098	-7.540265	-68.592525	-163.450585
34927		0.081815	-0.564277	-0.027026	-0.821077	-7.551356	-68.599371	-163.464145
34928		0.081765	-0.564319	-0.026979	-0.821055	-7.557663	-68.604647	-163.465928
34929		0.081723	-0.564356	-0.026960	-0.821034	-7.558129	-68.609691	-163.470615
34930		0.081702	-0.564384	-0.026970	-0.821017	-7.553887	-68.613817	-163.475784
34931		0.081588	-0.564402	-0.026943	-0.821016	-7.541882	-68.616856	-163.499543
34932		0.081598	-0.564399	-0.026949	-0.821017	-7.541915	-68.616474	-163.498177
34933		0.081597	-0.564406	-0.026936	-0.821013	-7.545818	-68.617147	-163.495484
34934		0.081615	-0.564444	-0.026963	-0.820984	-7.545090	-68.622712	-163.492491
34935		0.081597	-0.564472	-0.026966	-0.820967	-7.543181	-68.626717	-163.495678
34936		0.081615	-0.564494	-0.026977	-0.820950	-7.545427	-68.629728	-163.491158
34937		0.081604	-0.564510	-0.026955	-0.820940	-7.550183	-68.631595	-163.489138
34938		0.081623	-0.564533	-0.026956	-0.820922	-7.555272	-68.634613	-163.482435
34939		0.081613	-0.564529	-0.026957	-0.820926	-7.552619	-68.634128	-163.485836
34940		0.081655	-0.564540	-0.026960	-0.820915	-7.560351	-68.635268	-163.474450
34941		0.081637	-0.564562	-0.026988	-0.820900	-7.551666	-68.639048	-163.482252
34942		0.081672	-0.564564	-0.027004	-0.820894	-7.554197	-68.639352	-163.475566
34943		0.081561	-0.564578	-0.026932	-0.820898	-7.553752	-68.640849	-163.491093
34944		0.081572	-0.564605	-0.026947	-0.820878	-7.553996	-68.644763	-163.488770
34945		0.081553	-0.564621	-0.026941	-0.820869	-7.553373	-68.646930	-163.491527
34946		0.081581	-0.564643	-0.026953	-0.820851	-7.557110	-68.649872	-163.484517
34947		0.081528	-0.564679	-0.026931	-0.820832	-7.556034	-68.654816	-163.491941
34948		0.081594	-0.564710	-0.026969	-0.820803	-7.560444	-68.659193	-163.478950
34949		0.081477	-0.564756	-0.026878	-0.820786	-7.566598	-68.664708	-163.490099
34950		0.081526	-0.564792	-0.026919	-0.820755	-7.567508	-68.670061	-163.481806
34951		0.081467	-0.564831	-0.026871	-0.820736	-7.572459	-68.674882	-163.485756
34952		0.081521	-0.564858	-0.026892	-0.820711	-7.578707	-68.678511	-163.473419
34953		0.081473	-0.564881	-0.026871	-0.820701	-7.577153	-68.681645	-163.480677
34954		0.081519	-0.564900	-0.026905	-0.820682	-7.578184	-68.684441	-163.473056
34955		0.081374	-0.564913	-0.026790	-0.820691	-7.582875	-68.685310	-163.489907
34956		0.081435	-0.564925	-0.026865	-0.820674	-7.575490	-68.687953	-163.486054
34957		0.081521	-0.564960	-0.026932	-0.820640	-7.576313	-68.693182	-163.472676
34958		0.081559	-0.565010	-0.026964	-0.820600	-7.578925	-68.700353	-163.464385
34959		0.081461	-0.565045	-0.026896	-0.820588	-7.581532	-68.704624	-163.475591
34960		0.081489	-0.565081	-0.026900	-0.820560	-7.588481	-68.709312	-163.466085
34961		0.081393	-0.565087	-0.026837	-0.820568	-7.587850	-68.709773	-163.479873
34962		0.081406	-0.565087	-0.026823	-0.820567	-7.593543	-68.709411	-163.474213
34963		0.081287	-0.565064	-0.026726	-0.820598	-7.595438	-68.705401	-163.490178
34964		0.081314	-0.565013	-0.026718	-0.820631	-7.598296	-68.698033	-163.485574
34965		0.081347	-0.564990	-0.026734	-0.820643	-7.598271	-68.694949	-163.481513
34966		0.081379	-0.564972	-0.026716	-0.820652	-7.607083	-68.691879	-163.471515
34967		0.081369	-0.564971	-0.026681	-0.820655	-7.614126	-68.691109	-163.468147
34968		0.081391	-0.564984	-0.026671	-0.820645	-7.621684	-68.692406	-163.459651
34969		0.081315	-0.564998	-0.026593	-0.820645	-7.629007	-68.693567	-163.465021
34970		0.081367	-0.564995	-0.026605	-0.820641	-7.634981	-68.692908	-163.453743
34971		0.081260	-0.564981	-0.026502	-0.820665	-7.641108	-68.689980	-163.464981
34972		0.081322	-0.564964	-0.026524	-0.820669	-7.645342	-68.687515	-163.453751
34973		0.081283	-0.564966	-0.026492	-0.820673	-7.646390	-68.687443	-163.458560
34974		0.081346	-0.564951	-0.026540	-0.820676	-7.644409	-68.685810	-163.451406
34975		0.081395	-0.564939	-0.026558	-0.820679	-7.647529	-68.683998	-163.442733
34976		0.081477	-0.564920	-0.026592	-0.820683	-7.651881	-68.681390	-163.428711
34977		0.081423	-0.564887	-0.026518	-0.820713	-7.658480	-68.675945	-163.432595
34978		0.081501	-0.564877	-0.026538	-0.820711	-7.666544	-68.674239	-163.416376
34979		0.081620	-0.564846	-0.026594	-0.820719	-7.670873	-68.669965	-163.397544
34980		0.081684	-0.564816	-0.026614	-0.820733	-7.674678	-68.665775	-163.386719
34981		0.081677	-0.564807	-0.026580	-0.820741	-7.681531	-68.663882	-163.383287
34982		0.081744	-0.564783	-0.026606	-0.820750	-7.684834	-68.660523	-163.372144
34983		0.081651	-0.564784	-0.026537	-0.820761	-7.685946	-68.660173	-163.384418
34984		0.081718	-0.564786	-0.026557	-0.820752	-7.692865	-68.660277	-163.370384
34985		0.081683	-0.564798	-0.026510	-0.820749	-7.699665	-68.661191	-163.370387
34986		0.081739	-0.564817	-0.026545	-0.820729	-7.702128	-68.663937	-163.360364
34987		0.081765	-0.564843	-0.026550	-0.820708	-7.707646	-68.667344	-163.352408
34988		0.081818	-0.564873	-0.026596	-0.820681	-7.707635	-68.671826	-163.344226
34989		0.081826	-0.564914	-0.026586	-0.820652	-7.714772	-68.677235	-163.337404
34990		0.081845	-0.564940	-0.026612	-0.820631	-7.713624	-68.681110	-163.334865
34991		0.081920	-0.564955	-0.026671	-0.820612	-7.713216	-68.683560	-163.324249
34992		0.081912	-0.564985	-0.026663	-0.820592	-7.716164	-68.687649	-163.322624
34993		0.081849	-0.565007	-0.026598	-0.820585	-7.723266	-68.689926	-163.326248
34994		0.081851	-0.565022	-0.026574	-0.820576	-7.730668	-68.691373	-163.320618
34995		0.081833	-0.565036	-0.026556	-0.820569	-7.733434	-68.693088	-163.320865
34996		0.081817	-0.565053	-0.026510	-0.820560	-7.743570	-68.694676	-163.315841
34997		0.081791	-0.565058	-0.026484	-0.820560	-7.746075	-68.695060	-163.317654
34998		0.081693	-0.565093	-0.026433	-0.820547	-7.744152	-68.699816	-163.331958
34999		0.081559	-0.565138	-0.026328	-0.820533	-7.750671	-68.705062	-163.345314
35000		0.081482	-0.565204	-0.026290	-0.820496	-7.752023	-68.713963	-163.353562
35001		0.081268	-0.565277	-0.026163	-0.820471	-7.751878	-68.723439	-163.382036
35002		0.081171	-0.565357	-0.026114	-0.820427	-7.753471	-68.734222	-163.392752
35003		0.081072	-0.565419	-0.026052	-0.820396	-7.756689	-68.742366	-163.402961
35004		0.080969	-0.565449	-0.025995	-0.820387	-7.755208	-68.746298	-163.417648
35005		0.080784	-0.565481	-0.025907	-0.820386	-7.747120	-68.750615	-163.448426
35006		0.080732	-0.565479	-0.025859	-0.820395	-7.749986	-68.749874	-163.453839
35007		0.080697	-0.565471	-0.025844	-0.820404	-7.747009	-68.748794	-163.460901
35008		0.080677	-0.565469	-0.025800	-0.820409	-7.754381	-68.747823	-163.458785
35009		0.080580	-0.565475	-0.025740	-0.820416	-7.752745	-68.748353	-163.473436
35010		0.080570	-0.565490	-0.025751	-0.820406	-7.749555	-68.750714	-163.476612
35011		0.080526	-0.565508	-0.025750	-0.820398	-7.743386	-68.753591	-163.486538
35012		0.080533	-0.565518	-0.025757	-0.820391	-7.743688	-68.754970	-163.485031
35013		0.080423	-0.565521	-0.025698	-0.820401	-7.739363	-68.755289	-163.503421
35014		0.080457	-0.565524	-0.025713	-0.820395	-7.741791	-68.755611	-163.496930
35015		0.080526	-0.565513	-0.025769	-0.820394	-7.738853	-68.754678	-163.489483
35016		0.080599	-0.565501	-0.025844	-0.820393	-7.732055	-68.753814	-163.484027
35017		0.080661	-0.565489	-0.025901	-0.820393	-7.727419	-68.752788	-163.478854
35018		0.080729	-0.565484	-0.025971	-0.820388	-7.721486	-68.752832	-163.473380
35019		0.080783	-0.565466	-0.026000	-0.820394	-7.722123	-68.750438	-163.465855
35020		0.080877	-0.565440	-0.026086	-0.820400	-7.715037	-68.747703	-163.457980
35021		0.080897	-0.565417	-0.026145	-0.820412	-7.701749	-68.745618	-163.464728
35022		0.081014	-0.565376	-0.026207	-0.820426	-7.703485	-68.740164	-163.448136
35023		0.081059	-0.565370	-0.026238	-0.820425	-7.702999	-68.739538	-163.442277
35024		0.081155	-0.565373	-0.026298	-0.820412	-7.705269	-68.740265	-163.427085
35025		0.081178	-0.565389	-0.026324	-0.820398	-7.703850	-68.742649	-163.424437
35026		0.081263	-0.565391	-0.026392	-0.820386	-7.701737	-68.743463	-163.413973
35027		0.081210	-0.565390	-0.026376	-0.820392	-7.696466	-68.743615	-163.424988
35028		0.081288	-0.565355	-0.026438	-0.820407	-7.691661	-68.739313	-163.418148
35029		0.081374	-0.565338	-0.026518	-0.820407	-7.685359	-68.737784	-163.410684
35030		0.081430	-0.565346	-0.026588	-0.820394	-7.678241	-68.739667	-163.407426
35031		0.081410	-0.565329	-0.026573	-0.820408	-7.677076	-68.737322	-163.411416
35032		0.081439	-0.565327	-0.026617	-0.820405	-7.670818	-68.737688	-163.411626
35033		0.081383	-0.565349	-0.026590	-0.820396	-7.669594	-68.740658	-163.419785
35034		0.081407	-0.565368	-0.026621	-0.820380	-7.667485	-68.743653	-163.417386
35035		0.081395	-0.565396	-0.026619	-0.820362	-7.667935	-68.747455	-163.418093
35036		0.081424	-0.565405	-0.026630	-0.820352	-7.671179	-68.748704	-163.411644
35037		0.081353	-0.565411	-0.026587	-0.820357	-7.669905	-68.749293	-163.422375
35038		0.081370	-0.565404	-0.026578	-0.820360	-7.674625	-68.748045	-163.416923
35039		0.081274	-0.565424	-0.026527	-0.820358	-7.672055	-68.750539	-163.431741
35040		0.081253	-0.565450	-0.026502	-0.820342	-7.676845	-68.753878	-163.430814
35041		0.081342	-0.565457	-0.026550	-0.820327	-7.680985	-68.754951	-163.415367
35042		0.081314	-0.565490	-0.026529	-0.820308	-7.683787	-68.759198	-163.416610
35043		0.081223	-0.565518	-0.026469	-0.820300	-7.685135	-68.762652	-163.427770
35044		0.081201	-0.565557	-0.026445	-0.820276	-7.690321	-68.767723	-163.426470
35045		0.081165	-0.565564	-0.026412	-0.820275	-7.693001	-68.768396	-163.429473
35046		0.081119	-0.565558	-0.026394	-0.820285	-7.688738	-68.767606	-163.439059
35047		0.081163	-0.565543	-0.026427	-0.820290	-7.687113	-68.765809	-163.434287
35048		0.081160	-0.565510	-0.026422	-0.820313	-7.685168	-68.761255	-163.436804
35049		0.081097	-0.565474	-0.026364	-0.820346	-7.686138	-68.755796	-163.445823
35050		0.081103	-0.565453	-0.026362	-0.820360	-7.686083	-68.752900	-163.445468
35051		0.081137	-0.565441	-0.026346	-0.820365	-7.695156	-68.750566	-163.434885
35052		0.081134	-0.565465	-0.026343	-0.820349	-7.697181	-68.753768	-163.433375
35053		0.081084	-0.565514	-0.026294	-0.820322	-7.704815	-68.759907	-163.434064
35054		0.081087	-0.565558	-0.026279	-0.820292	-7.712506	-68.765657	-163.427419
35055		0.081065	-0.565592	-0.026263	-0.820271	-7.715264	-68.770130	-163.427880
35056		0.081075	-0.565619	-0.026278	-0.820251	-7.715412	-68.774098	-163.425752
35057		0.081014	-0.565636	-0.026248	-0.820246	-7.713586	-68.776378	-163.435176
35058		0.081028	-0.565641	-0.026250	-0.820242	-7.715815	-68.776872	-163.431584
35059		0.080999	-0.565653	-0.026260	-0.820235	-7.709209	-68.779095	-163.439789
35060		0.081035	-0.565674	-0.026283	-0.820217	-7.711454	-68.782009	-163.432701
35061		0.080984	-0.565672	-0.026212	-0.820225	-7.720241	-68.780835	-163.433907
35062		0.081015	-0.565672	-0.026247	-0.820221	-7.716811	-68.781204	-163.431966
35063		0.080976	-0.565668	-0.026207	-0.820229	-7.719750	-68.780250	-163.435493
35064		0.080981	-0.565657	-0.026181	-0.820237	-7.726333	-68.778239	-163.430688
35065		0.080859	-0.565630	-0.026098	-0.820270	-7.723739	-68.774036	-163.450135
35066		0.080867	-0.565611	-0.026086	-0.820283	-7.726543	-68.771134	-163.447600
35067		0.080865	-0.565601	-0.026086	-0.820290	-7.725436	-68.769790	-163.448840
35068		0.080888	-0.565615	-0.026066	-0.820279	-7.735811	-68.771088	-163.438277
35069		0.080837	-0.565645	-0.026041	-0.820264	-7.735325	-68.775088	-163.445114
35070		0.080827	-0.565643	-0.025999	-0.820268	-7.744186	-68.774044	-163.440561
35071		0.080832	-0.565661	-0.025989	-0.820255	-7.749192	-68.776339	-163.436018
35072		0.080827	-0.565684	-0.025996	-0.820240	-7.748331	-68.779557	-163.436741
35073		0.080761	-0.565695	-0.025955	-0.820240	-7.747686	-68.780869	-163.446167
35074		0.080754	-0.565713	-0.025946	-0.820228	-7.750199	-68.783245	-163.445008
35075		0.080678	-0.565764	-0.025900	-0.820202	-7.752364	-68.789975	-163.453045
35076		0.080659	-0.565783	-0.025925	-0.820190	-7.744228	-68.793295	-163.460726
35077		0.080596	-0.565807	-0.025872	-0.820181	-7.748264	-68.796054	-163.466364
35078		0.080588	-0.565843	-0.025916	-0.820156	-7.738644	-68.801873	-163.473053
35079		0.080521	-0.565847	-0.025892	-0.820161	-7.733044	-68.802556	-163.486213
35080		0.080509	-0.565860	-0.025912	-0.820152	-7.726887	-68.804967	-163.491735
35081		0.080596	-0.565872	-0.025978	-0.820133	-7.726323	-68.806985	-163.479680
35082		0.080586	-0.565872	-0.025962	-0.820135	-7.728918	-68.806797	-163.479245
35083		0.080579	-0.565873	-0.025958	-0.820135	-7.728800	-68.806945	-163.480255
35084		0.080580	-0.565860	-0.025951	-0.820144	-7.729599	-68.804957	-163.479919
35085		0.080640	-0.565857	-0.026007	-0.820138	-7.725782	-68.805217	-163.474203
35086		0.080642	-0.565874	-0.026009	-0.820126	-7.726894	-68.807528	-163.472772
35087		0.080703	-0.565894	-0.026059	-0.820105	-7.726532	-68.810601	-163.463968
35088		0.080721	-0.565903	-0.026068	-0.820096	-7.728243	-68.811934	-163.460077
35089		0.080775	-0.565901	-0.026120	-0.820091	-7.724414	-68.812152	-163.455119
35090		0.080819	-0.565890	-0.026146	-0.820094	-7.724924	-68.810707	-163.448874
35091		0.080855	-0.565886	-0.026173	-0.820092	-7.724089	-68.810445	-163.444491
35092		0.080889	-0.565892	-0.026214	-0.820083	-7.720116	-68.811658	-163.442268
35093		0.080915	-0.565893	-0.026225	-0.820079	-7.722037	-68.811807	-163.437242
35094		0.080935	-0.565907	-0.026250	-0.820067	-7.720354	-68.813989	-163.435252
35095		0.080851	-0.565923	-0.026181	-0.820066	-7.724442	-68.815613	-163.443814
35096		0.080859	-0.565947	-0.026180	-0.820049	-7.727945	-68.818750	-163.439829
35097		0.080923	-0.565934	-0.026225	-0.820050	-7.726814	-68.817271	-163.431896
35098		0.080930	-0.565930	-0.026241	-0.820052	-7.723716	-68.816967	-163.433134
35099		0.080967	-0.565915	-0.026281	-0.820057	-7.719055	-68.815391	-163.431357
35100		0.080976	-0.565912	-0.026287	-0.820058	-7.718847	-68.815075	-163.430370
35101		0.080934	-0.565927	-0.026287	-0.820052	-7.712534	-68.817442	-163.440133
35102		0.080948	-0.565917	-0.026298	-0.820057	-7.711422	-68.816228	-163.439202
35103		0.080923	-0.565928	-0.026284	-0.820053	-7.711389	-68.817632	-163.442449
35104		0.080925	-0.565931	-0.026294	-0.820050	-7.709184	-68.818230	-163.443642
35105		0.080898	-0.565952	-0.026312	-0.820038	-7.701461	-68.821725	-163.452222
35106		0.080909	-0.565967	-0.026326	-0.820026	-7.701157	-68.823978	-163.450526
35107		0.080887	-0.565991	-0.026311	-0.820012	-7.702795	-68.827090	-163.451914
35108		0.080875	-0.566016	-0.026297	-0.819996	-7.706190	-68.830376	-163.450720
35109		0.080864	-0.566020	-0.026291	-0.819995	-7.706155	-68.830911	-163.452149
35110		0.080849	-0.566027	-0.026270	-0.819992	-7.709637	-68.831629	-163.451673
35111		0.080856	-0.566028	-0.026258	-0.819991	-7.713829	-68.831462	-163.447932
35112		0.080841	-0.566036	-0.026236	-0.819988	-7.717311	-68.832181	-163.447455
35113		0.080797	-0.566048	-0.026216	-0.819984	-7.715632	-68.833827	-163.454458
35114		0.080776	-0.566061	-0.026199	-0.819978	-7.717120	-68.835459	-163.456158
35115		0.080769	-0.566073	-0.026215	-0.819970	-7.712893	-68.837542	-163.459720
35116		0.080766	-0.566097	-0.026212	-0.819954	-7.714885	-68.840761	-163.458251
35117		0.080784	-0.566111	-0.026253	-0.819941	-7.708944	-68.843278	-163.459320
35118		0.080770	-0.566118	-0.026231	-0.819938	-7.712423	-68.843997	-163.458844
35119		0.080743	-0.566138	-0.026210	-0.819928	-7.714692	-68.846455	-163.460606
35120		0.080707	-0.566159	-0.026177	-0.819918	-7.718479	-68.849054	-163.462528
35121		0.080738	-0.566161	-0.026208	-0.819912	-7.716080	-68.849637	-163.459826
35122		0.080715	-0.566157	-0.026174	-0.819918	-7.720551	-68.848689	-163.460012
35123		0.080757	-0.566156	-0.026176	-0.819915	-7.727299	-68.848118	-163.449712
35124		0.080724	-0.566169	-0.026157	-0.819910	-7.727282	-68.849831	-163.453919
35125		0.080693	-0.566184	-0.026170	-0.819902	-7.719494	-68.852398	-163.463301
35126		0.080710	-0.566177	-0.026162	-0.819906	-7.724164	-68.851156	-163.457916
35127		0.080674	-0.566176	-0.026129	-0.819911	-7.725893	-68.850747	-163.461840
35128		0.080659	-0.566186	-0.026134	-0.819905	-7.723071	-68.852328	-163.465501
35129		0.080559	-0.566205	-0.026048	-0.819905	-7.728354	-68.854068	-163.475628
35130		0.080547	-0.566244	-0.026026	-0.819880	-7.735054	-68.859074	-163.471810
35131		0.080557	-0.566285	-0.026017	-0.819851	-7.742374	-68.864435	-163.464510
35132		0.080504	-0.566326	-0.025979	-0.819829	-7.745972	-68.869751	-163.468494
35133		0.080474	-0.566320	-0.025921	-0.819837	-7.754943	-68.868128	-163.466769
35134		0.080446	-0.566339	-0.025909	-0.819828	-7.754423	-68.870677	-163.470654
35135		0.080460	-0.566320	-0.025892	-0.819840	-7.759882	-68.867664	-163.465396
35136		0.080449	-0.566319	-0.025885	-0.819842	-7.759548	-68.867497	-163.467218
35137		0.080476	-0.566323	-0.025918	-0.819836	-7.756281	-68.868349	-163.465508
35138		0.080471	-0.566329	-0.025907	-0.819832	-7.758354	-68.869002	-163.464758
35139		0.080386	-0.566350	-0.025842	-0.819828	-7.761543	-68.871379	-163.473959
35140		0.080396	-0.566380	-0.025883	-0.819805	-7.755326	-68.876229	-163.476027
35141		0.080431	-0.566418	-0.025928	-0.819774	-7.753060	-68.882038	-163.471841
35142		0.080442	-0.566461	-0.025925	-0.819743	-7.759370	-68.887732	-163.464895
35143		0.080359	-0.566476	-0.025851	-0.819743	-7.764631	-68.889058	-163.472684
35144		0.080357	-0.566499	-0.025813	-0.819729	-7.775835	-68.891403	-163.464826
35145		0.080336	-0.566534	-0.025779	-0.819707	-7.783415	-68.895777	-163.461833
35146		0.080371	-0.566552	-0.025776	-0.819692	-7.791915	-68.897839	-163.450643
35147		0.080389	-0.566555	-0.025740	-0.819689	-7.804506	-68.897303	-163.439614
35148		0.080403	-0.566576	-0.025760	-0.819673	-7.803687	-68.900394	-163.437599
35149		0.080403	-0.566568	-0.025731	-0.819679	-7.810456	-68.898767	-163.433179
35150		0.080434	-0.566596	-0.025750	-0.819656	-7.813553	-68.902594	-163.426078
35151		0.080403	-0.566626	-0.025727	-0.819639	-7.816129	-68.906528	-163.428053
35152		0.080437	-0.566656	-0.025726	-0.819615	-7.825047	-68.910324	-163.416466
35153		0.080444	-0.566663	-0.025718	-0.819610	-7.828901	-68.911100	-163.412653
35154		0.080480	-0.566670	-0.025749	-0.819600	-7.827755	-68.912311	-163.408263
35155		0.080525	-0.566681	-0.025755	-0.819588	-7.835221	-68.913487	-163.396648
35156		0.080530	-0.566703	-0.025764	-0.819572	-7.835803	-68.916648	-163.394910
35157		0.080490	-0.566716	-0.025677	-0.819570	-7.851832	-68.916980	-163.389431
35158		0.080541	-0.566716	-0.025715	-0.819564	-7.851271	-68.917210	-163.382600
35159		0.080577	-0.566739	-0.025732	-0.819544	-7.855242	-68.920397	-163.374371
35160		0.080593	-0.566761	-0.025742	-0.819527	-7.857328	-68.923477	-163.370119
35161		0.080604	-0.566776	-0.025756	-0.819515	-7.856943	-68.925690	-163.368488
35162		0.080617	-0.566767	-0.025767	-0.819520	-7.855763	-68.924485	-163.367629
35163		0.080563	-0.566752	-0.025741	-0.819536	-7.851447	-68.922478	-163.378527
35164		0.080564	-0.566738	-0.025734	-0.819545	-7.852168	-68.920506	-163.378276
35165		0.080482	-0.566735	-0.025687	-0.819557	-7.849211	-68.919884	-163.391870
35166		0.080471	-0.566745	-0.025646	-0.819553	-7.858509	-68.920574	-163.386922
35167		0.080426	-0.566767	-0.025612	-0.819543	-7.861065	-68.923236	-163.391000
35168		0.080398	-0.566784	-0.025564	-0.819535	-7.869777	-68.924910	-163.388495
35169		0.080308	-0.566803	-0.025481	-0.819534	-7.876284	-68.926628	-163.396302
35170		0.080277	-0.566814	-0.025427	-0.819531	-7.885490	-68.927467	-163.394135
35171		0.080237	-0.566801	-0.025385	-0.819545	-7.888072	-68.925232	-163.398340
35172		0.080197	-0.566804	-0.025354	-0.819548	-7.889026	-68.925293	-163.403254
35173		0.080187	-0.566825	-0.025307	-0.819536	-7.900979	-68.927370	-163.396067
35174		0.080144	-0.566849	-0.025253	-0.819525	-7.909106	-68.930028	-163.396007
35175		0.080075	-0.566876	-0.025155	-0.819516	-7.923895	-68.932418	-163.395048
35176		0.080048	-0.566894	-0.025107	-0.819508	-7.932609	-68.934091	-163.392544
35177		0.079969	-0.566895	-0.025056	-0.819516	-7.931689	-68.934047	-163.404226
35178		0.079934	-0.566904	-0.025021	-0.819514	-7.935063	-68.934924	-163.406559
35179		0.079980	-0.566904	-0.025043	-0.819510	-7.937827	-68.934839	-163.398194
35180		0.079915	-0.566944	-0.025013	-0.819489	-7.937045	-68.940274	-163.406910
35181		0.079835	-0.566993	-0.024961	-0.819465	-7.939860	-68.946696	-163.415166
35182		0.079747	-0.567042	-0.024903	-0.819441	-7.942807	-68.953166	-163.424351
35183		0.079695	-0.567108	-0.024867	-0.819401	-7.948153	-68.961918	-163.426394
35184		0.079586	-0.567158	-0.024806	-0.819379	-7.948067	-68.968562	-163.440626
35185		0.079480	-0.567186	-0.024738	-0.819372	-7.948872	-68.972065	-163.454229
35186		0.079394	-0.567195	-0.024660	-0.819377	-7.953932	-68.972483	-163.462748
35187		0.079284	-0.567205	-0.024598	-0.819382	-7.950813	-68.973754	-163.480069
35188		0.079197	-0.567240	-0.024514	-0.819369	-7.959636	-68.977626	-163.485521
35189		0.079057	-0.567282	-0.024414	-0.819356	-7.963570	-68.982805	-163.501404
35190		0.078913	-0.567344	-0.024360	-0.819329	-7.956403	-68.991471	-163.525086
35191		0.078800	-0.567406	-0.024267	-0.819300	-7.964877	-68.999258	-163.533668
35192		0.078679	-0.567466	-0.024181	-0.819273	-7.969976	-69.006869	-163.545894
35193		0.078499	-0.567544	-0.024083	-0.819238	-7.968880	-69.017397	-163.570053
35194		0.078374	-0.567615	-0.024008	-0.819203	-7.971451	-69.026767	-163.584151
35195		0.078263	-0.567686	-0.023989	-0.819165	-7.962117	-69.037128	-163.604344
35196		0.078184	-0.567732	-0.023917	-0.819144	-7.969912	-69.042680	-163.609156
35197		0.078074	-0.567803	-0.023876	-0.819105	-7.966281	-69.052752	-163.625313
35198		0.078020	-0.567854	-0.023814	-0.819077	-7.976625	-69.058964	-163.624730
35199		0.077937	-0.567933	-0.023757	-0.819032	-7.982693	-69.069414	-163.630301
35200		0.077903	-0.567985	-0.023733	-0.819000	-7.986801	-69.076337	-163.631108
35201		0.077870	-0.568023	-0.023693	-0.818978	-7.994180	-69.081129	-163.629820
35202		0.077824	-0.568061	-0.023676	-0.818956	-7.993406	-69.086422	-163.635835
35203		0.077751	-0.568061	-0.023646	-0.818964	-7.987989	-69.086447	-163.649806
35204		0.077741	-0.568061	-0.023629	-0.818965	-7.990535	-69.086266	-163.649442
35205		0.077660	-0.568056	-0.023578	-0.818978	-7.988561	-69.085355	-163.662353
35206		0.077629	-0.568059	-0.023584	-0.818979	-7.981688	-69.086218	-163.671258
35207		0.077514	-0.568067	-0.023513	-0.818987	-7.979736	-69.086922	-163.688663
35208		0.077503	-0.568068	-0.023532	-0.818986	-7.972980	-69.087627	-163.694771
35209		0.077515	-0.568057	-0.023559	-0.818992	-7.967297	-69.086495	-163.697226
35210		0.077515	-0.568043	-0.023552	-0.819001	-7.968014	-69.084507	-163.697007
35211		0.077598	-0.568030	-0.023604	-0.819002	-7.968266	-69.082871	-163.685583
35212		0.077589	-0.568035	-0.023639	-0.818998	-7.958076	-69.084426	-163.693622
35213		0.077574	-0.568053	-0.023610	-0.818987	-7.964300	-69.086416	-163.691059
35214		0.077597	-0.568070	-0.023616	-0.818974	-7.968411	-69.088558	-163.684622
35215		0.077621	-0.568100	-0.023645	-0.818950	-7.967581	-69.092990	-163.681087
35216		0.077661	-0.568139	-0.023666	-0.818918	-7.972648	-69.098447	-163.671035
35217		0.077720	-0.568194	-0.023705	-0.818873	-7.977643	-69.106100	-163.658077
35218		0.077757	-0.568245	-0.023738	-0.818833	-7.980194	-69.113315	-163.649882
35219		0.077776	-0.568285	-0.023760	-0.818803	-7.981033	-69.119043	-163.645718
35220		0.077805	-0.568340	-0.023807	-0.818761	-7.978615	-69.127201	-163.641998
35221		0.077899	-0.568372	-0.023892	-0.818727	-7.976283	-69.132323	-163.629517
35222		0.077946	-0.568404	-0.023883	-0.818701	-7.989762	-69.135992	-163.613038
35223		0.077921	-0.568448	-0.023851	-0.818674	-7.997229	-69.141605	-163.610310
35224		0.077951	-0.568501	-0.023862	-0.818633	-8.004140	-69.148875	-163.600093
35225		0.077887	-0.568544	-0.023788	-0.818612	-8.015051	-69.153838	-163.600650
35226		0.077890	-0.568591	-0.023799	-0.818579	-8.016452	-69.160473	-163.598125
35227		0.077894	-0.568627	-0.023799	-0.818554	-8.020040	-69.165274	-163.594346
35228		0.077871	-0.568666	-0.023775	-0.818529	-8.025262	-69.170381	-163.593016
35229		0.077748	-0.568719	-0.023681	-0.818507	-8.031359	-69.176943	-163.604997
35230		0.077722	-0.568758	-0.023703	-0.818481	-8.024286	-69.182965	-163.612458
35231		0.077629	-0.568771	-0.023665	-0.818482	-8.018143	-69.184903	-163.629440
35232		0.077641	-0.568776	-0.023704	-0.818476	-8.010946	-69.186298	-163.632473
35233		0.077640	-0.568738	-0.023716	-0.818503	-8.004209	-69.181275	-163.638202
35234		0.077697	-0.568690	-0.023775	-0.818529	-7.995545	-69.175403	-163.637294
35235		0.077742	-0.568685	-0.023837	-0.818526	-7.987359	-69.175455	-163.636614
35236		0.077824	-0.568686	-0.023915	-0.818516	-7.982025	-69.176292	-163.628722
35237		0.077957	-0.568689	-0.024010	-0.818498	-7.981954	-69.177400	-163.609997
35238		0.078051	-0.568734	-0.024091	-0.818455	-7.981867	-69.184182	-163.595712
35239		0.078100	-0.568807	-0.024130	-0.818399	-7.986619	-69.194403	-163.583775
35240		0.078197	-0.568881	-0.024184	-0.818337	-7.996246	-69.204603	-163.561801
35241		0.078166	-0.568945	-0.024173	-0.818295	-7.998555	-69.213519	-163.563121
35242		0.078281	-0.568990	-0.024257	-0.818251	-8.001519	-69.220135	-163.543767
35243		0.078354	-0.569035	-0.024318	-0.818210	-8.002900	-69.226829	-163.531530
35244		0.078454	-0.569061	-0.024402	-0.818181	-8.001426	-69.230991	-163.517775
35245		0.078528	-0.569068	-0.024453	-0.818167	-8.002344	-69.232267	-163.506584
35246		0.078621	-0.569085	-0.024551	-0.818143	-7.995428	-69.235647	-163.497764
35247		0.078675	-0.569090	-0.024589	-0.818133	-7.995803	-69.236591	-163.489828
35248		0.078733	-0.569087	-0.024648	-0.818128	-7.990765	-69.236784	-163.485153
35249		0.078777	-0.569092	-0.024691	-0.818119	-7.987989	-69.237862	-163.480719
