// General information: 
//  MT Manager version: 2022.2.0 
//  XDA version: 2022.2.0 build 7381 rev 124627 built on 2023-07-19
// Device information: 
//  DeviceId: 10B4151C
//  ProductCode: MTW2-3A7G6
//  Firmware Version: 4.14.0
//  Hardware Version: 3.0.0
// Device settings: 
//  Filter Profile: human(46.1)
//  Option Flags: Orientation Smoother Disabled, Position/Velocity Smoother Disabled, Continuous Zero Rotation Update Disabled, AHS Disabled, ICC Disabled
// Coordinate system: ENU
PacketCounter	SampleTimeFine	Quat_q0	Quat_q1	Quat_q2	Quat_q3	Roll	Pitch	Yaw
35519		0.622031	-0.346872	-0.559582	-0.423822	17.824268	-81.963322	-84.052190
35520		0.622036	-0.346841	-0.559533	-0.423905	17.839463	-81.953409	-84.072855
35521		0.622033	-0.346816	-0.559493	-0.423983	17.858111	-81.944990	-84.097019
35522		0.622047	-0.346729	-0.559540	-0.423972	17.904379	-81.941892	-84.133927
35523		0.622026	-0.346704	-0.559544	-0.424016	17.939520	-81.938817	-84.171089
35524		0.622023	-0.346685	-0.559529	-0.424057	17.955145	-81.934417	-84.189090
35525		0.622054	-0.346603	-0.559533	-0.424072	17.981184	-81.926873	-84.208947
35526		0.622050	-0.346576	-0.559525	-0.424112	18.002985	-81.922475	-84.232133
35527		0.622088	-0.346513	-0.559540	-0.424087	18.010508	-81.918866	-84.231274
35528		0.622106	-0.346509	-0.559512	-0.424100	17.995313	-81.915469	-84.217228
35529		0.622117	-0.346519	-0.559478	-0.424122	17.978306	-81.912428	-84.203440
35530		0.622053	-0.346595	-0.559422	-0.424227	17.983305	-81.910924	-84.226030
35531		0.621980	-0.346662	-0.559389	-0.424323	18.003283	-81.911140	-84.261862
35532		0.621932	-0.346695	-0.559375	-0.424385	18.024644	-81.911143	-84.292423
35533		0.621894	-0.346674	-0.559417	-0.424403	18.074594	-81.912680	-84.341897
35534		0.621871	-0.346622	-0.559463	-0.424418	18.131855	-81.911952	-84.395653
35535		0.621869	-0.346526	-0.559553	-0.424381	18.200469	-81.912970	-84.451330
35536		0.621920	-0.346423	-0.559610	-0.424314	18.224344	-81.910950	-84.458896
35537		0.621931	-0.346361	-0.559637	-0.424314	18.256855	-81.907746	-84.485477
35538		0.621904	-0.346345	-0.559659	-0.424338	18.292682	-81.907760	-84.521997
35539		0.621856	-0.346342	-0.559680	-0.424383	18.338580	-81.908216	-84.572022
35540		0.621821	-0.346352	-0.559705	-0.424393	18.365063	-81.911244	-84.600298
35541		0.621748	-0.346376	-0.559739	-0.424435	18.415924	-81.915457	-84.657398
35542		0.621687	-0.346319	-0.559862	-0.424409	18.514229	-81.922733	-84.747298
35543		0.621658	-0.346222	-0.559993	-0.424358	18.610239	-81.928003	-84.828714
35544		0.621582	-0.346214	-0.560079	-0.424362	18.687864	-81.935301	-84.905642
35545		0.621555	-0.346169	-0.560156	-0.424336	18.745673	-81.939241	-84.956377
35546		0.621528	-0.346169	-0.560188	-0.424334	18.771819	-81.942360	-84.982163
35547		0.621483	-0.346206	-0.560190	-0.424367	18.788061	-81.945052	-85.005072
35548		0.621438	-0.346259	-0.560176	-0.424409	18.793745	-81.947324	-85.019871
35549		0.621382	-0.346358	-0.560120	-0.424483	18.776927	-81.948898	-85.019838
35550		0.621309	-0.346423	-0.560101	-0.424562	18.799334	-81.950699	-85.055976
35551		0.621229	-0.346482	-0.560098	-0.424635	18.832337	-81.953646	-85.101707
35552		0.621212	-0.346445	-0.560171	-0.424594	18.876001	-81.958428	-85.137602
35553		0.621129	-0.346469	-0.560225	-0.424625	18.938325	-81.964758	-85.204900
35554		0.621130	-0.346387	-0.560344	-0.424534	18.997693	-81.971262	-85.247206
35555		0.621065	-0.346382	-0.560393	-0.424568	19.062568	-81.974440	-85.314804
35556		0.620975	-0.346402	-0.560424	-0.424641	19.132344	-81.977026	-85.393534
35557		0.620910	-0.346397	-0.560473	-0.424676	19.197325	-81.980181	-85.461239
35558		0.620867	-0.346382	-0.560510	-0.424702	19.247846	-81.981406	-85.512775
35559		0.620798	-0.346403	-0.560538	-0.424748	19.298162	-81.984653	-85.569443
35560		0.620729	-0.346404	-0.560571	-0.424805	19.362218	-81.986123	-85.639010
35561		0.620678	-0.346388	-0.560624	-0.424823	19.421908	-81.989075	-85.698822
35562		0.620608	-0.346415	-0.560663	-0.424852	19.470442	-81.994324	-85.752483
35563		0.620546	-0.346460	-0.560688	-0.424873	19.499435	-82.000120	-85.787618
35564		0.620506	-0.346481	-0.560729	-0.424860	19.524182	-82.006347	-85.812897
35565		0.620398	-0.346593	-0.560718	-0.424941	19.548570	-82.013095	-85.855740
35566		0.620343	-0.346632	-0.560722	-0.424984	19.573087	-82.015748	-85.888058
35567		0.620281	-0.346670	-0.560745	-0.425013	19.606850	-82.020466	-85.928075
35568		0.620259	-0.346629	-0.560839	-0.424955	19.659152	-82.027331	-85.970504
35569		0.620204	-0.346661	-0.560852	-0.424992	19.689862	-82.030359	-86.007718
35570		0.620138	-0.346727	-0.560810	-0.425089	19.703772	-82.029488	-86.037501
35571		0.620058	-0.346820	-0.560745	-0.425216	19.712158	-82.028070	-86.067343
35572		0.619978	-0.346955	-0.560650	-0.425350	19.691727	-82.027343	-86.072944
35573		0.619882	-0.347135	-0.560559	-0.425460	19.655330	-82.032136	-86.064546
35574		0.619771	-0.347304	-0.560504	-0.425558	19.643798	-82.039479	-86.078531
35575		0.619747	-0.347354	-0.560506	-0.425550	19.633509	-82.044544	-86.072083
35576		0.619794	-0.347279	-0.560585	-0.425437	19.643730	-82.048511	-86.064026
35577		0.619788	-0.347258	-0.560649	-0.425379	19.667351	-82.054356	-86.079619
35578		0.619742	-0.347284	-0.560689	-0.425373	19.695056	-82.060668	-86.108945
35579		0.619704	-0.347320	-0.560720	-0.425357	19.708592	-82.067316	-86.124166
35580		0.619699	-0.347317	-0.560738	-0.425344	19.717009	-82.069143	-86.130941
35581		0.619657	-0.347372	-0.560717	-0.425388	19.717696	-82.070937	-86.141164
35582		0.619618	-0.347435	-0.560687	-0.425432	19.710215	-82.072599	-86.144053
35583		0.619611	-0.347486	-0.560668	-0.425427	19.682747	-82.075599	-86.120827
35584		0.619588	-0.347539	-0.560642	-0.425450	19.667113	-82.077478	-86.112553
35585		0.619574	-0.347582	-0.560653	-0.425422	19.652835	-82.083225	-86.099387
35586		0.619643	-0.347542	-0.560709	-0.425279	19.619209	-82.089292	-86.047752
35587		0.619618	-0.347623	-0.560687	-0.425278	19.587750	-82.094712	-86.023770
35588		0.619606	-0.347705	-0.560634	-0.425298	19.541298	-82.096702	-85.987233
35589		0.619589	-0.347775	-0.560593	-0.425321	19.509454	-82.098657	-85.964236
35590		0.619494	-0.347910	-0.560511	-0.425456	19.501887	-82.099183	-85.982975
35591		0.619501	-0.347922	-0.560511	-0.425436	19.488002	-82.100945	-85.968091
35592		0.619490	-0.347929	-0.560523	-0.425432	19.494596	-82.102791	-85.974890
35593		0.619561	-0.347836	-0.560584	-0.425324	19.494580	-82.103290	-85.955334
35594		0.619647	-0.347722	-0.560644	-0.425212	19.493290	-82.101863	-85.932260
35595		0.619718	-0.347664	-0.560667	-0.425127	19.468568	-82.101287	-85.893637
35596		0.619830	-0.347554	-0.560698	-0.425012	19.439658	-82.097515	-85.843031
35597		0.619840	-0.347587	-0.560661	-0.425018	19.405964	-82.097004	-85.813223
35598		0.619815	-0.347649	-0.560615	-0.425065	19.386004	-82.096941	-85.803740
35599		0.619807	-0.347737	-0.560521	-0.425129	19.329477	-82.094219	-85.762203
35600		0.619762	-0.347836	-0.560443	-0.425215	19.300869	-82.093442	-85.751628
35601		0.619776	-0.347825	-0.560438	-0.425210	19.294982	-82.092098	-85.744231
35602		0.619831	-0.347746	-0.560473	-0.425150	19.299164	-82.089926	-85.734880
35603		0.619861	-0.347645	-0.560577	-0.425052	19.344064	-82.093422	-85.760397
35604		0.619876	-0.347612	-0.560601	-0.425025	19.353898	-82.093412	-85.764406
35605		0.619876	-0.347584	-0.560633	-0.425006	19.373586	-82.094380	-85.779429
35606		0.619904	-0.347567	-0.560646	-0.424962	19.360457	-82.095518	-85.760366
35607		0.619875	-0.347631	-0.560618	-0.424988	19.342645	-82.097866	-85.751256
35608		0.619875	-0.347669	-0.560606	-0.424974	19.317795	-82.100676	-85.728576
35609		0.619871	-0.347679	-0.560627	-0.424942	19.314985	-82.104605	-85.723498
35610		0.619883	-0.347679	-0.560652	-0.424892	19.306030	-82.108490	-85.709529
35611		0.619919	-0.347632	-0.560705	-0.424809	19.307319	-82.111696	-85.697980
35612		0.619954	-0.347609	-0.560739	-0.424731	19.292285	-82.115113	-85.672997
35613		0.619958	-0.347625	-0.560738	-0.424715	19.278113	-82.116998	-85.658695
35614		0.619887	-0.347746	-0.560674	-0.424802	19.259358	-82.119503	-85.660023
35615		0.619841	-0.347861	-0.560625	-0.424840	19.222769	-82.124269	-85.638136
35616		0.619891	-0.347875	-0.560611	-0.424775	19.167090	-82.126215	-85.577435
35617		0.619855	-0.347961	-0.560565	-0.424818	19.140519	-82.128459	-85.563185
35618		0.619921	-0.347907	-0.560605	-0.424713	19.117633	-82.130494	-85.524808
35619		0.619918	-0.347920	-0.560619	-0.424688	19.112933	-82.133707	-85.518831
35620		0.619925	-0.347879	-0.560687	-0.424621	19.137800	-82.138476	-85.532943
35621		0.619915	-0.347873	-0.560714	-0.424605	19.152141	-82.140902	-85.545099
35622		0.619825	-0.347984	-0.560664	-0.424711	19.158809	-82.143299	-85.572722
35623		0.619758	-0.348068	-0.560626	-0.424790	19.162761	-82.144974	-85.592410
35624		0.619661	-0.348180	-0.560562	-0.424925	19.174010	-82.145203	-85.627616
35625		0.619588	-0.348243	-0.560520	-0.425036	19.198236	-82.143601	-85.668787
35626		0.619507	-0.348292	-0.560494	-0.425146	19.237794	-82.142397	-85.723889
35627		0.619473	-0.348261	-0.560500	-0.425215	19.290200	-82.137936	-85.780139
35628		0.619471	-0.348181	-0.560556	-0.425208	19.348287	-82.136073	-85.829847
35629		0.619425	-0.348120	-0.560641	-0.425215	19.436959	-82.138163	-85.913202
35630		0.619417	-0.348023	-0.560738	-0.425177	19.514240	-82.139493	-85.977320
35631		0.619341	-0.348022	-0.560763	-0.425255	19.585940	-82.139405	-86.056541
35632		0.619187	-0.348153	-0.560703	-0.425450	19.637162	-82.139839	-86.139440
35633		0.619064	-0.348272	-0.560650	-0.425602	19.668570	-82.141097	-86.197092
35634		0.618950	-0.348369	-0.560623	-0.425725	19.708929	-82.143704	-86.258593
35635		0.618813	-0.348501	-0.560582	-0.425869	19.745032	-82.147603	-86.321419
35636		0.618736	-0.348557	-0.560555	-0.425973	19.777664	-82.146935	-86.369552
35637		0.618656	-0.348599	-0.560555	-0.426054	19.823394	-82.148362	-86.427204
35638		0.618573	-0.348653	-0.560550	-0.426137	19.864172	-82.150213	-86.481236
35639		0.618494	-0.348668	-0.560590	-0.426187	19.930161	-82.153736	-86.553382
35640		0.618354	-0.348755	-0.560582	-0.426328	20.001030	-82.156652	-86.646296
35641		0.618257	-0.348781	-0.560631	-0.426383	20.076340	-82.161856	-86.729235
35642		0.618121	-0.348922	-0.560605	-0.426500	20.108123	-82.168736	-86.785807
35643		0.618019	-0.349042	-0.560564	-0.426604	20.120658	-82.172741	-86.819903
35644		0.617942	-0.349129	-0.560535	-0.426683	20.132993	-82.175543	-86.848181
35645		0.617847	-0.349225	-0.560518	-0.426763	20.156115	-82.180329	-86.888240
35646		0.617762	-0.349317	-0.560500	-0.426834	20.172998	-82.184965	-86.920789
35647		0.617706	-0.349407	-0.560473	-0.426877	20.163993	-82.189435	-86.924567
35648		0.617677	-0.349458	-0.560484	-0.426862	20.157692	-82.195660	-86.921459
35649		0.617618	-0.349518	-0.560493	-0.426887	20.173508	-82.201278	-86.945278
35650		0.617553	-0.349581	-0.560494	-0.426929	20.193468	-82.205828	-86.975215
35651		0.617469	-0.349669	-0.560486	-0.426989	20.212710	-82.211289	-87.008663
35652		0.617338	-0.349848	-0.560438	-0.427095	20.212706	-82.220068	-87.035972
35653		0.617267	-0.350001	-0.560365	-0.427169	20.173335	-82.225126	-87.018393
35654		0.617154	-0.350160	-0.560311	-0.427271	20.168796	-82.231630	-87.039056
35655		0.617088	-0.350242	-0.560302	-0.427311	20.176012	-82.237170	-87.057898
35656		0.617133	-0.350199	-0.560362	-0.427202	20.166907	-82.242259	-87.033713
35657		0.617106	-0.350240	-0.560382	-0.427182	20.166788	-82.248502	-87.035417
35658		0.617096	-0.350258	-0.560413	-0.427141	20.167252	-82.254311	-87.033377
35659		0.617061	-0.350309	-0.560428	-0.427129	20.166784	-82.260817	-87.036470
35660		0.617039	-0.350342	-0.560439	-0.427120	20.166653	-82.265102	-87.038416
35661		0.617003	-0.350448	-0.560374	-0.427170	20.125131	-82.267433	-87.011987
35662		0.616943	-0.350559	-0.560329	-0.427225	20.104369	-82.271877	-87.007157
35663		0.616897	-0.350655	-0.560290	-0.427263	20.080932	-82.275983	-86.996656
35664		0.616856	-0.350770	-0.560219	-0.427321	20.037681	-82.278215	-86.970047
35665		0.616827	-0.350876	-0.560154	-0.427362	19.989874	-82.280642	-86.936478
35666		0.616811	-0.350961	-0.560098	-0.427388	19.943662	-82.282602	-86.900997
35667		0.616804	-0.351011	-0.560078	-0.427383	19.915490	-82.285616	-86.877079
35668		0.616822	-0.351002	-0.560087	-0.427353	19.906017	-82.286461	-86.863751
35669		0.616802	-0.351037	-0.560096	-0.427341	19.902316	-82.291023	-86.862129
35670		0.616790	-0.351104	-0.560075	-0.427332	19.867487	-82.295517	-86.832627
35671		0.616783	-0.351139	-0.560052	-0.427342	19.848656	-82.296382	-86.818285
35672		0.616789	-0.351194	-0.560014	-0.427339	19.804293	-82.297986	-86.778829
35673		0.616765	-0.351244	-0.560016	-0.427331	19.793779	-82.303045	-86.772145
35674		0.616830	-0.351220	-0.560053	-0.427207	19.751316	-82.308141	-86.715094
35675		0.616815	-0.351308	-0.560012	-0.427209	19.702889	-82.312501	-86.675304
35676		0.616796	-0.351383	-0.559950	-0.427256	19.666567	-82.312180	-86.650820
35677		0.616800	-0.351422	-0.559923	-0.427255	19.635023	-82.313365	-86.622921
35678		0.616775	-0.351536	-0.559883	-0.427250	19.579199	-82.320322	-86.577340
35679		0.616751	-0.351624	-0.559885	-0.427209	19.542830	-82.330015	-86.545211
35680		0.616793	-0.351648	-0.559893	-0.427119	19.488580	-82.335765	-86.484186
35681		0.616832	-0.351655	-0.559907	-0.427038	19.447937	-82.340227	-86.436140
35682		0.616999	-0.351471	-0.560028	-0.426789	19.422871	-82.342114	-86.368917
35683		0.617010	-0.351504	-0.560044	-0.426725	19.390962	-82.348689	-86.333665
35684		0.617061	-0.351475	-0.560092	-0.426612	19.366249	-82.354064	-86.294898
35685		0.617102	-0.351528	-0.560044	-0.426573	19.288276	-82.355565	-86.218183
35686		0.617094	-0.351614	-0.559960	-0.426623	19.232016	-82.354104	-86.175226
35687		0.617075	-0.351730	-0.559868	-0.426675	19.165488	-82.354657	-86.125089
35688		0.617107	-0.351792	-0.559792	-0.426678	19.087917	-82.353148	-86.053900
35689		0.617101	-0.351920	-0.559655	-0.426761	18.998201	-82.349608	-85.984870
35690		0.617098	-0.352064	-0.559509	-0.426837	18.892851	-82.346884	-85.901151
35691		0.617117	-0.352134	-0.559414	-0.426877	18.821352	-82.343089	-85.840485
35692		0.617170	-0.352162	-0.559360	-0.426847	18.748698	-82.341582	-85.767712
35693		0.617198	-0.352183	-0.559322	-0.426841	18.706309	-82.339992	-85.726758
35694		0.617246	-0.352165	-0.559316	-0.426795	18.673251	-82.339153	-85.687495
35695		0.617275	-0.352129	-0.559334	-0.426758	18.671022	-82.338643	-85.678276
35696		0.617380	-0.351999	-0.559401	-0.426626	18.665022	-82.336904	-85.646755
35697		0.617448	-0.351931	-0.559418	-0.426561	18.648100	-82.334200	-85.617050
35698		0.617547	-0.351830	-0.559445	-0.426464	18.624572	-82.330316	-85.574435
35699		0.617608	-0.351768	-0.559472	-0.426391	18.610782	-82.329295	-85.547594
35700		0.617711	-0.351704	-0.559489	-0.426273	18.558862	-82.328477	-85.477970
35701		0.617763	-0.351720	-0.559443	-0.426246	18.496303	-82.326260	-85.414405
35702		0.617913	-0.351627	-0.559448	-0.426098	18.417941	-82.322510	-85.312780
35703		0.617955	-0.351650	-0.559393	-0.426091	18.359823	-82.319620	-85.256374
35704		0.618068	-0.351572	-0.559361	-0.426032	18.304641	-82.311097	-85.188203
35705		0.618160	-0.351496	-0.559331	-0.426002	18.269103	-82.302090	-85.142683
35706		0.618290	-0.351334	-0.559382	-0.425880	18.260270	-82.295494	-85.106545
35707		0.618362	-0.351230	-0.559402	-0.425835	18.265221	-82.289121	-85.097295
35708		0.618575	-0.350942	-0.559497	-0.425638	18.266330	-82.277390	-85.051793
35709		0.618650	-0.350800	-0.559527	-0.425606	18.294533	-82.268085	-85.063385
35710		0.618753	-0.350599	-0.559608	-0.425517	18.339380	-82.259953	-85.080418
35711		0.618835	-0.350478	-0.559642	-0.425452	18.346600	-82.253882	-85.069811
35712		0.618965	-0.350312	-0.559679	-0.425351	18.340371	-82.245100	-85.037959
35713		0.619018	-0.350238	-0.559644	-0.425381	18.339190	-82.234089	-85.033036
35714		0.619095	-0.350130	-0.559620	-0.425389	18.340012	-82.221541	-85.024730
35715		0.619112	-0.350099	-0.559561	-0.425467	18.341782	-82.210826	-85.031565
35716		0.619164	-0.350026	-0.559537	-0.425484	18.342101	-82.201232	-85.026828
35717		0.619203	-0.349938	-0.559531	-0.425507	18.364787	-82.191852	-85.043582
35718		0.619311	-0.349748	-0.559567	-0.425458	18.394243	-82.179290	-85.050483
35719		0.619382	-0.349621	-0.559560	-0.425469	18.413552	-82.166561	-85.059041
35720		0.619463	-0.349476	-0.559566	-0.425462	18.436890	-82.153981	-85.068229
35721		0.619485	-0.349397	-0.559553	-0.425513	18.469724	-82.143871	-85.098705
35722		0.619554	-0.349272	-0.559559	-0.425506	18.489985	-82.133225	-85.106689
35723		0.619553	-0.349260	-0.559511	-0.425580	18.495602	-82.125311	-85.118695
35724		0.619597	-0.349188	-0.559513	-0.425575	18.504480	-82.118975	-85.120255
35725		0.619576	-0.349173	-0.559482	-0.425657	18.531655	-82.112247	-85.154370
35726		0.619646	-0.349067	-0.559517	-0.425595	18.539804	-82.107674	-85.146334
35727		0.619680	-0.348985	-0.559544	-0.425579	18.565228	-82.103148	-85.162408
35728		0.619812	-0.348791	-0.559648	-0.425408	18.578169	-82.100300	-85.139982
35729		0.619853	-0.348713	-0.559683	-0.425367	18.594388	-82.097614	-85.144870
35730		0.619946	-0.348566	-0.559748	-0.425267	18.610526	-82.093181	-85.137158
35731		0.619947	-0.348548	-0.559743	-0.425286	18.621284	-82.090571	-85.148148
35732		0.620009	-0.348475	-0.559794	-0.425188	18.615129	-82.091509	-85.125322
35733		0.619985	-0.348535	-0.559760	-0.425218	18.595660	-82.093010	-85.114579
35734		0.620085	-0.348458	-0.559788	-0.425099	18.556462	-82.092096	-85.056389
35735		0.620102	-0.348489	-0.559757	-0.425089	18.518250	-82.092300	-85.020123
35736		0.620207	-0.348433	-0.559787	-0.424943	18.460504	-82.094254	-84.942730
35737		0.620250	-0.348446	-0.559790	-0.424865	18.412524	-82.098077	-84.888245
35738		0.620340	-0.348427	-0.559805	-0.424729	18.342940	-82.101675	-84.803446
35739		0.620378	-0.348484	-0.559755	-0.424693	18.267025	-82.103110	-84.729564
35740		0.620430	-0.348539	-0.559733	-0.424601	18.180860	-82.108741	-84.639509
35741		0.620439	-0.348663	-0.559655	-0.424589	18.085449	-82.112973	-84.554730
35742		0.620487	-0.348714	-0.559634	-0.424504	18.005696	-82.118117	-84.471494
35743		0.620490	-0.348817	-0.559576	-0.424492	17.930805	-82.122278	-84.405311
35744		0.620537	-0.348890	-0.559531	-0.424423	17.835961	-82.126517	-84.310608
35745		0.620588	-0.348958	-0.559465	-0.424379	17.739386	-82.127617	-84.216239
35746		0.620689	-0.348965	-0.559436	-0.424264	17.639498	-82.128629	-84.105855
35747		0.620745	-0.349021	-0.559394	-0.424192	17.547819	-82.131678	-84.012498
35748		0.620881	-0.348979	-0.559404	-0.424014	17.450277	-82.133881	-83.893510
35749		0.620939	-0.349037	-0.559343	-0.423961	17.353979	-82.134618	-83.797674
35750		0.621011	-0.349086	-0.559256	-0.423930	17.250690	-82.131396	-83.696230
35751		0.621059	-0.349163	-0.559174	-0.423905	17.150692	-82.131077	-83.601307
35752		0.621114	-0.349223	-0.559108	-0.423862	17.055746	-82.131173	-83.508036
35753		0.621180	-0.349277	-0.559029	-0.423825	16.955298	-82.129410	-83.409321
35754		0.621292	-0.349247	-0.559006	-0.423715	16.870115	-82.127331	-83.310619
35755		0.621362	-0.349254	-0.558967	-0.423659	16.799168	-82.125516	-83.234984
35756		0.621490	-0.349190	-0.558961	-0.423531	16.723681	-82.122632	-83.141042
35757		0.621606	-0.349148	-0.558946	-0.423415	16.644044	-82.120351	-83.046185
35758		0.621789	-0.349039	-0.558950	-0.423231	16.549431	-82.115603	-82.923355
35759		0.621925	-0.348982	-0.558899	-0.423146	16.460957	-82.107466	-82.821473
35760		0.622051	-0.348947	-0.558828	-0.423084	16.367465	-82.098800	-82.718862
35761		0.622148	-0.348933	-0.558742	-0.423066	16.285642	-82.089370	-82.634434
35762		0.622279	-0.348896	-0.558677	-0.422990	16.188159	-82.081433	-82.526377
35763		0.622357	-0.348941	-0.558549	-0.423008	16.083129	-82.072171	-82.427747
35764		0.622469	-0.348954	-0.558428	-0.422991	15.968318	-82.061703	-82.313117
35765		0.622579	-0.348970	-0.558316	-0.422964	15.854246	-82.052473	-82.198387
35766		0.622684	-0.348974	-0.558184	-0.422981	15.753572	-82.039044	-82.100360
35767		0.622829	-0.348910	-0.558087	-0.422947	15.662952	-82.024282	-82.000870
35768		0.622974	-0.348819	-0.558032	-0.422882	15.592537	-82.012003	-81.915925
35769		0.623078	-0.348788	-0.557949	-0.422865	15.518155	-82.001118	-81.837312
35770		0.623174	-0.348773	-0.557846	-0.422869	15.439232	-81.989255	-81.757958
35771		0.623250	-0.348758	-0.557748	-0.422900	15.380096	-81.977118	-81.700897
35772		0.623324	-0.348737	-0.557660	-0.422925	15.327199	-81.965573	-81.648928
35773		0.623388	-0.348739	-0.557548	-0.422976	15.266332	-81.953123	-81.593746
35774		0.623470	-0.348699	-0.557468	-0.422993	15.219740	-81.940956	-81.545447
35775		0.623523	-0.348656	-0.557432	-0.422998	15.201172	-81.933266	-81.523573
35776		0.623591	-0.348591	-0.557421	-0.422966	15.184806	-81.926977	-81.498075
35777		0.623676	-0.348493	-0.557410	-0.422935	15.174982	-81.917728	-81.476237
35778		0.623732	-0.348424	-0.557396	-0.422929	15.172265	-81.910145	-81.466526
35779		0.623789	-0.348353	-0.557387	-0.422914	15.169621	-81.903142	-81.455924
35780		0.623861	-0.348250	-0.557381	-0.422901	15.175911	-81.893487	-81.451390
35781		0.623876	-0.348223	-0.557350	-0.422943	15.181856	-81.886847	-81.459040
35782		0.623892	-0.348195	-0.557296	-0.423013	15.186454	-81.877070	-81.468148
35783		0.623889	-0.348183	-0.557237	-0.423106	15.198689	-81.867671	-81.488682
35784		0.623932	-0.348134	-0.557196	-0.423137	15.193418	-81.858368	-81.482137
35785		0.623937	-0.348109	-0.557201	-0.423143	15.206500	-81.856431	-81.493496
35786		0.623940	-0.348075	-0.557234	-0.423123	15.227325	-81.857203	-81.509014
35787		0.623957	-0.347992	-0.557282	-0.423103	15.269381	-81.855068	-81.541187
35788		0.623969	-0.347934	-0.557317	-0.423088	15.298723	-81.853661	-81.563492
35789		0.623964	-0.347881	-0.557352	-0.423092	15.339293	-81.852361	-81.599392
35790		0.623956	-0.347878	-0.557329	-0.423136	15.348822	-81.848675	-81.613005
35791		0.623950	-0.347874	-0.557306	-0.423178	15.357152	-81.845014	-81.625237
35792		0.623908	-0.347916	-0.557266	-0.423258	15.366582	-81.842801	-81.646633
35793		0.623877	-0.347941	-0.557227	-0.423336	15.378257	-81.839103	-81.668414
35794		0.623872	-0.347967	-0.557171	-0.423395	15.364269	-81.834380	-81.662872
35795		0.623844	-0.348031	-0.557113	-0.423460	15.345604	-81.832771	-81.656867
35796		0.623842	-0.348068	-0.557073	-0.423485	15.322178	-81.831328	-81.639512
35797		0.623814	-0.348126	-0.557036	-0.423527	15.307497	-81.831859	-81.634472
35798		0.623831	-0.348127	-0.557029	-0.423510	15.290540	-81.831634	-81.616062
35799		0.623822	-0.348146	-0.557023	-0.423516	15.286087	-81.832586	-81.614006
35800		0.623819	-0.348161	-0.557021	-0.423511	15.278602	-81.833935	-81.607372
35801		0.623820	-0.348170	-0.557030	-0.423489	15.271131	-81.836194	-81.598566
35802		0.623828	-0.348188	-0.557049	-0.423439	15.251351	-81.840913	-81.575360
35803		0.623816	-0.348237	-0.557084	-0.423370	15.227867	-81.850649	-81.549513
35804		0.623811	-0.348310	-0.557101	-0.423294	15.181456	-81.860814	-81.502393
35805		0.623823	-0.348393	-0.557105	-0.423204	15.113321	-81.870949	-81.433022
35806		0.623850	-0.348469	-0.557118	-0.423085	15.034959	-81.881986	-81.349981
35807		0.623885	-0.348551	-0.557100	-0.422989	14.944984	-81.889860	-81.258362
35808		0.623900	-0.348686	-0.557057	-0.422912	14.836833	-81.899521	-81.155406
35809		0.623919	-0.348838	-0.556995	-0.422839	14.711937	-81.908674	-81.037780
35810		0.623967	-0.348971	-0.556926	-0.422750	14.574699	-81.915726	-80.904444
35811		0.623997	-0.349089	-0.556882	-0.422665	14.462977	-81.923797	-80.795612
35812		0.624058	-0.349167	-0.556893	-0.422496	14.350831	-81.935873	-80.674048
35813		0.624098	-0.349253	-0.556924	-0.422326	14.251488	-81.950747	-80.565794
35814		0.624142	-0.349302	-0.556981	-0.422146	14.173898	-81.965142	-80.474917
35815		0.624221	-0.349326	-0.557034	-0.421940	14.081967	-81.977409	-80.364636
35816		0.624297	-0.349329	-0.557103	-0.421733	14.006267	-81.989486	-80.268687
35817		0.624366	-0.349327	-0.557179	-0.421532	13.940396	-82.001717	-80.182521
35818		0.624418	-0.349354	-0.557240	-0.421352	13.870128	-82.014480	-80.096840
35819		0.624448	-0.349430	-0.557267	-0.421210	13.785372	-82.027375	-80.005131
35820		0.624540	-0.349457	-0.557294	-0.421014	13.677556	-82.036886	-79.880494
35821		0.624586	-0.349512	-0.557295	-0.420899	13.593061	-82.044456	-79.789854
35822		0.624625	-0.349557	-0.557322	-0.420768	13.521972	-82.054176	-79.709974
35823		0.624662	-0.349587	-0.557345	-0.420658	13.463966	-82.061754	-79.643878
35824		0.624742	-0.349549	-0.557401	-0.420495	13.413112	-82.067750	-79.573260
35825		0.624815	-0.349489	-0.557476	-0.420338	13.385238	-82.073506	-79.524053
35826		0.624897	-0.349429	-0.557529	-0.420196	13.350247	-82.076737	-79.469366
35827		0.624956	-0.349365	-0.557597	-0.420071	13.338804	-82.080805	-79.439419
35828		0.624986	-0.349347	-0.557616	-0.420017	13.322605	-82.082320	-79.416199
35829		0.625023	-0.349305	-0.557646	-0.419956	13.317038	-82.083120	-79.400604
35830		0.625043	-0.349311	-0.557665	-0.419896	13.292232	-82.086845	-79.370402
35831		0.625072	-0.349312	-0.557660	-0.419858	13.263889	-82.087313	-79.338442
35832		0.625077	-0.349327	-0.557656	-0.419844	13.248810	-82.088430	-79.323401
35833		0.625128	-0.349286	-0.557677	-0.419774	13.229866	-82.088481	-79.293735
35834		0.625171	-0.349238	-0.557703	-0.419716	13.223212	-82.088188	-79.276824
35835		0.625200	-0.349216	-0.557701	-0.419694	13.212522	-82.086407	-79.261871
35836		0.625195	-0.349214	-0.557705	-0.419698	13.218150	-82.086530	-79.267695
35837		0.625197	-0.349189	-0.557722	-0.419693	13.234162	-82.086242	-79.280835
35838		0.625200	-0.349138	-0.557793	-0.419637	13.266438	-82.090332	-79.302585
35839		0.625198	-0.349109	-0.557814	-0.419636	13.288835	-82.089913	-79.322091
35840		0.625174	-0.349096	-0.557818	-0.419677	13.321251	-82.088295	-79.357279
35841		0.625194	-0.349029	-0.557850	-0.419660	13.350733	-82.086025	-79.378778
35842		0.625211	-0.348953	-0.557898	-0.419634	13.389011	-82.084887	-79.407254
35843		0.625200	-0.348899	-0.557941	-0.419638	13.438297	-82.084512	-79.451702
35844		0.625201	-0.348857	-0.557956	-0.419651	13.467007	-82.082074	-79.477656
35845		0.625179	-0.348842	-0.557968	-0.419682	13.499898	-82.081242	-79.512104
35846		0.625111	-0.348895	-0.557943	-0.419772	13.526320	-82.081417	-79.552394
35847		0.625070	-0.348901	-0.557928	-0.419847	13.561021	-82.078878	-79.595132
35848		0.625033	-0.348892	-0.557940	-0.419894	13.602056	-82.078265	-79.639837
35849		0.624984	-0.348863	-0.557983	-0.419934	13.669471	-82.079322	-79.708298
35850		0.624952	-0.348807	-0.558054	-0.419934	13.738387	-82.081675	-79.771663
35851		0.624903	-0.348751	-0.558107	-0.419984	13.824521	-82.081153	-79.857189
35852		0.624836	-0.348720	-0.558150	-0.420052	13.910124	-82.081393	-79.946318
35853		0.624782	-0.348681	-0.558188	-0.420112	13.988181	-82.080549	-80.026532
35854		0.624741	-0.348630	-0.558229	-0.420162	14.064081	-82.079119	-80.102393
35855		0.624617	-0.348633	-0.558265	-0.420296	14.177969	-82.080116	-80.229477
35856		0.624505	-0.348620	-0.558300	-0.420426	14.292515	-82.079755	-80.355460
35857		0.624385	-0.348637	-0.558327	-0.420556	14.393501	-82.081116	-80.470548
35858		0.624272	-0.348656	-0.558338	-0.420692	14.486217	-82.080853	-80.578294
35859		0.624156	-0.348641	-0.558376	-0.420826	14.606009	-82.080425	-80.709664
35860		0.624055	-0.348587	-0.558463	-0.420906	14.739514	-82.082633	-80.845588
35861		0.623955	-0.348502	-0.558597	-0.420946	14.892844	-82.087773	-80.994275
35862		0.623872	-0.348426	-0.558711	-0.420981	15.024378	-82.091803	-81.121737
35863		0.623754	-0.348382	-0.558807	-0.421064	15.166426	-82.095726	-81.267397
35864		0.623622	-0.348387	-0.558875	-0.421166	15.287307	-82.100656	-81.398417
35865		0.623501	-0.348428	-0.558899	-0.421279	15.371723	-82.104085	-81.497578
35866		0.623377	-0.348488	-0.558899	-0.421413	15.445261	-82.106279	-81.589836
35867		0.623203	-0.348610	-0.558899	-0.421570	15.522660	-82.113546	-81.693877
35868		0.623034	-0.348708	-0.558911	-0.421722	15.611829	-82.119890	-81.807012
35869		0.622914	-0.348763	-0.558938	-0.421819	15.686207	-82.125274	-81.895890
35870		0.622786	-0.348861	-0.558914	-0.421959	15.737237	-82.128206	-81.969866
35871		0.622704	-0.348867	-0.558943	-0.422036	15.810001	-82.129858	-82.050605
35872		0.622652	-0.348812	-0.559039	-0.422030	15.897708	-82.134667	-82.132267
35873		0.622541	-0.348816	-0.559129	-0.422073	16.000952	-82.143009	-82.239558
35874		0.622418	-0.348841	-0.559208	-0.422128	16.098842	-82.151901	-82.344883
35875		0.622302	-0.348870	-0.559255	-0.422213	16.188708	-82.157113	-82.445595
35876		0.622194	-0.348927	-0.559284	-0.422285	16.249937	-82.163392	-82.519057
35877		0.622083	-0.349002	-0.559280	-0.422393	16.301840	-82.167050	-82.588543
35878		0.621998	-0.349063	-0.559265	-0.422489	16.339849	-82.168539	-82.641636
35879		0.621896	-0.349144	-0.559249	-0.422592	16.377840	-82.171686	-82.697386
35880		0.621818	-0.349223	-0.559243	-0.422649	16.395046	-82.176858	-82.727629
35881		0.621739	-0.349282	-0.559264	-0.422689	16.428286	-82.183317	-82.770148
35882		0.621678	-0.349312	-0.559285	-0.422727	16.466040	-82.187153	-82.814221
35883		0.621650	-0.349247	-0.559356	-0.422728	16.538729	-82.188240	-82.880727
35884		0.621640	-0.349162	-0.559434	-0.422710	16.610024	-82.188731	-82.941939
35885		0.621615	-0.349111	-0.559495	-0.422706	16.669776	-82.190303	-82.996414
35886		0.621561	-0.349067	-0.559558	-0.422740	16.752899	-82.191569	-83.078451
35887		0.621536	-0.349016	-0.559596	-0.422768	16.813409	-82.189969	-83.136832
35888		0.621508	-0.349007	-0.559595	-0.422818	16.845699	-82.187737	-83.173146
35889		0.621513	-0.349005	-0.559575	-0.422840	16.842776	-82.184972	-83.172309
35890		0.621577	-0.348965	-0.559560	-0.422797	16.809776	-82.181016	-83.131453
35891		0.621580	-0.349013	-0.559506	-0.422826	16.772547	-82.179186	-83.101758
35892		0.621598	-0.349072	-0.559422	-0.422861	16.712733	-82.175293	-83.051248
35893		0.621611	-0.349116	-0.559361	-0.422886	16.668084	-82.172644	-83.013426
35894		0.621595	-0.349174	-0.559302	-0.422941	16.642489	-82.170635	-82.998803
35895		0.621607	-0.349223	-0.559227	-0.422981	16.594997	-82.166568	-82.960158
35896		0.621642	-0.349210	-0.559216	-0.422955	16.570885	-82.165014	-82.932403
35897		0.621657	-0.349210	-0.559198	-0.422957	16.556913	-82.163170	-82.918674
35898		0.621635	-0.349234	-0.559175	-0.423000	16.559834	-82.161857	-82.928085
35899		0.621659	-0.349186	-0.559206	-0.422963	16.571697	-82.161573	-82.931755
35900		0.621703	-0.349135	-0.559237	-0.422899	16.566371	-82.161675	-82.915365
35901		0.621751	-0.349090	-0.559261	-0.422834	16.553289	-82.161682	-82.891567
35902		0.621791	-0.349050	-0.559292	-0.422767	16.543796	-82.162848	-82.871635
35903		0.621813	-0.349061	-0.559260	-0.422769	16.515665	-82.160659	-82.844801
35904		0.621858	-0.349052	-0.559236	-0.422741	16.479095	-82.158158	-82.804837
35905		0.621847	-0.349130	-0.559190	-0.422754	16.433871	-82.160354	-82.768355
35906		0.621861	-0.349171	-0.559170	-0.422727	16.391499	-82.162735	-82.727184
35907		0.621868	-0.349201	-0.559159	-0.422705	16.363159	-82.164966	-82.699449
35908		0.621925	-0.349163	-0.559167	-0.422643	16.336866	-82.163925	-82.663462
35909		0.621966	-0.349127	-0.559187	-0.422585	16.323369	-82.164206	-82.640979
35910		0.621973	-0.349153	-0.559170	-0.422577	16.298703	-82.165028	-82.617929
35911		0.621971	-0.349162	-0.559191	-0.422544	16.293726	-82.168842	-82.610465
35912		0.621982	-0.349146	-0.559220	-0.422502	16.294686	-82.171370	-82.605765
35913		0.621970	-0.349154	-0.559239	-0.422489	16.300888	-82.174269	-82.611315
35914		0.621982	-0.349152	-0.559255	-0.422451	16.291191	-82.176691	-82.597601
35915		0.621991	-0.349153	-0.559262	-0.422430	16.282535	-82.177952	-82.586882
35916		0.622069	-0.349068	-0.559314	-0.422315	16.268956	-82.178417	-82.553950
35917		0.622081	-0.349054	-0.559328	-0.422290	16.267071	-82.179210	-82.548241
35918		0.622054	-0.349093	-0.559323	-0.422303	16.265131	-82.181970	-82.551256
35919		0.622049	-0.349105	-0.559349	-0.422266	16.261332	-82.186633	-82.544822
35920		0.622058	-0.349117	-0.559361	-0.422228	16.244928	-82.189891	-82.525726
35921		0.622048	-0.349162	-0.559346	-0.422226	16.222103	-82.192518	-82.506953
35922		0.622039	-0.349204	-0.559314	-0.422246	16.200364	-82.192662	-82.491201
35923		0.622029	-0.349237	-0.559289	-0.422268	16.186525	-82.192529	-82.482667
35924		0.621998	-0.349302	-0.559270	-0.422285	16.169317	-82.196154	-82.473300
35925		0.621984	-0.349369	-0.559248	-0.422278	16.134442	-82.200268	-82.444112
35926		0.621964	-0.349429	-0.559197	-0.422326	16.110091	-82.199378	-82.430221
35927		0.621965	-0.349435	-0.559190	-0.422328	16.104811	-82.199192	-82.425745
35928		0.621969	-0.349413	-0.559209	-0.422316	16.116769	-82.199422	-82.434382
35929		0.621957	-0.349397	-0.559230	-0.422319	16.139954	-82.199951	-82.456265
35930		0.621948	-0.349391	-0.559256	-0.422303	16.152646	-82.202391	-82.466738
35931		0.621921	-0.349414	-0.559257	-0.422322	16.161879	-82.204143	-82.479917
35932		0.621919	-0.349443	-0.559228	-0.422339	16.142878	-82.203405	-82.465525
35933		0.621908	-0.349478	-0.559172	-0.422401	16.128674	-82.199425	-82.460794
35934		0.621892	-0.349482	-0.559166	-0.422428	16.140372	-82.198511	-82.475662
35935		0.621851	-0.349518	-0.559158	-0.422471	16.154064	-82.199819	-82.496892
35936		0.621826	-0.349500	-0.559179	-0.422494	16.190215	-82.199763	-82.533562
35937		0.621789	-0.349488	-0.559186	-0.422549	16.234314	-82.197904	-82.581907
35938		0.621769	-0.349461	-0.559187	-0.422599	16.272930	-82.194277	-82.622896
35939		0.621705	-0.349468	-0.559218	-0.422647	16.329160	-82.196776	-82.684368
35940		0.621655	-0.349441	-0.559254	-0.422695	16.395714	-82.196703	-82.752927
35941		0.621622	-0.349395	-0.559280	-0.422747	16.459693	-82.193698	-82.817614
35942		0.621613	-0.349313	-0.559329	-0.422763	16.527254	-82.190728	-82.878998
35943		0.621575	-0.349240	-0.559395	-0.422793	16.616243	-82.189826	-82.963717
35944		0.621575	-0.349152	-0.559443	-0.422802	16.678634	-82.186235	-83.018634
35945		0.621546	-0.349112	-0.559458	-0.422858	16.734589	-82.182666	-83.076328
35946		0.621468	-0.349113	-0.559439	-0.422995	16.806454	-82.177261	-83.161899
35947		0.621417	-0.349090	-0.559439	-0.423091	16.871469	-82.172480	-83.234105
35948		0.621348	-0.349116	-0.559419	-0.423197	16.917766	-82.170033	-83.293322
35949		0.621291	-0.349093	-0.559442	-0.423269	16.988164	-82.168335	-83.368601
35950		0.621252	-0.349061	-0.559467	-0.423319	17.047101	-82.166572	-83.429386
35951		0.621215	-0.349034	-0.559471	-0.423390	17.100949	-82.162538	-83.487721
35952		0.621222	-0.348961	-0.559503	-0.423399	17.146266	-82.158706	-83.526929
35953		0.621202	-0.348935	-0.559508	-0.423442	17.182728	-82.155641	-83.565197
35954		0.621169	-0.348939	-0.559503	-0.423495	17.211195	-82.154054	-83.599219
35955		0.621131	-0.348953	-0.559500	-0.423542	17.236724	-82.153792	-83.630647
35956		0.621100	-0.348961	-0.559522	-0.423552	17.261582	-82.156420	-83.657175
35957		0.621042	-0.348982	-0.559555	-0.423576	17.301598	-82.160902	-83.701335
35958		0.621038	-0.348961	-0.559604	-0.423535	17.321140	-82.164938	-83.714755
35959		0.621006	-0.348964	-0.559647	-0.423523	17.350778	-82.169770	-83.743230
35960		0.620966	-0.348998	-0.559661	-0.423534	17.364378	-82.173960	-83.761069
35961		0.620948	-0.349007	-0.559703	-0.423497	17.376598	-82.179926	-83.770313
35962		0.620927	-0.349029	-0.559724	-0.423482	17.381113	-82.184394	-83.775361
35963		0.620902	-0.349058	-0.559756	-0.423453	17.386503	-82.190993	-83.780401
35964		0.620896	-0.349076	-0.559793	-0.423398	17.380095	-82.197873	-83.770051
35965		0.620864	-0.349098	-0.559848	-0.423353	17.396229	-82.206526	-83.783643
35966		0.620816	-0.349131	-0.559917	-0.423305	17.420211	-82.217621	-83.805669
35967		0.620809	-0.349152	-0.559979	-0.423217	17.414229	-82.228013	-83.792608
35968		0.620817	-0.349178	-0.560034	-0.423112	17.390219	-82.238660	-83.760490
35969		0.620806	-0.349211	-0.560095	-0.423019	17.378921	-82.250238	-83.742857
35970		0.620796	-0.349236	-0.560178	-0.422904	17.373666	-82.263821	-83.728309
35971		0.620757	-0.349292	-0.560249	-0.422820	17.372191	-82.278334	-83.723512
35972		0.620731	-0.349355	-0.560309	-0.422728	17.354717	-82.292479	-83.702546
35973		0.620671	-0.349423	-0.560378	-0.422667	17.365560	-82.307193	-83.713490
35974		0.620690	-0.349455	-0.560435	-0.422537	17.326006	-82.319399	-83.663823
35975		0.620675	-0.349522	-0.560478	-0.422447	17.294324	-82.332136	-83.629341
35976		0.620697	-0.349515	-0.560571	-0.422297	17.280139	-82.344829	-83.599434
35977		0.620668	-0.349554	-0.560633	-0.422225	17.281063	-82.356458	-83.596575
35978		0.620648	-0.349549	-0.560733	-0.422126	17.306540	-82.368623	-83.611485
35979		0.620661	-0.349480	-0.560860	-0.421995	17.345613	-82.378338	-83.630757
35980		0.620644	-0.349468	-0.560951	-0.421909	17.373155	-82.388503	-83.648321
35981		0.620654	-0.349472	-0.560995	-0.421832	17.361530	-82.395353	-83.629326
35982		0.620683	-0.349419	-0.561070	-0.421735	17.373460	-82.400538	-83.626426
35983		0.620660	-0.349437	-0.561096	-0.421718	17.382815	-82.405253	-83.635693
35984		0.620673	-0.349436	-0.561115	-0.421676	17.371699	-82.408100	-83.620253
35985		0.620659	-0.349491	-0.561083	-0.421693	17.345540	-82.409531	-83.601040
35986		0.620649	-0.349570	-0.561022	-0.421722	17.296637	-82.409987	-83.562628
35987		0.620640	-0.349680	-0.560934	-0.421762	17.224403	-82.410348	-83.504998
35988		0.620627	-0.349747	-0.560862	-0.421820	17.186736	-82.407797	-83.479582
35989		0.620608	-0.349826	-0.560794	-0.421873	17.147699	-82.406902	-83.453299
35990		0.620586	-0.349912	-0.560707	-0.421950	17.105150	-82.404157	-83.426659
35991		0.620579	-0.349937	-0.560668	-0.421991	17.093471	-82.401467	-83.421570
35992		0.620601	-0.349913	-0.560634	-0.422024	17.089142	-82.394964	-83.418339
35993		0.620616	-0.349871	-0.560623	-0.422051	17.103725	-82.389340	-83.431760
35994		0.620668	-0.349790	-0.560640	-0.422021	17.112694	-82.384314	-83.430095
35995		0.620676	-0.349766	-0.560626	-0.422047	17.121730	-82.380022	-83.439580
35996		0.620681	-0.349760	-0.560593	-0.422088	17.120890	-82.375168	-83.442313
35997		0.620669	-0.349780	-0.560535	-0.422166	17.116551	-82.369153	-83.447702
35998		0.620678	-0.349806	-0.560481	-0.422204	17.088822	-82.365103	-83.426414
35999		0.620659	-0.349853	-0.560414	-0.422281	17.072319	-82.360757	-83.422140
36000		0.620674	-0.349882	-0.560340	-0.422333	17.035252	-82.354740	-83.393253
36001		0.620668	-0.349918	-0.560254	-0.422426	17.013496	-82.347000	-83.384310
36002		0.620645	-0.350001	-0.560135	-0.422549	16.974452	-82.339468	-83.365545
36003		0.620654	-0.350038	-0.560062	-0.422602	16.937763	-82.334239	-83.337833
36004		0.620609	-0.350139	-0.559955	-0.422726	16.906776	-82.329631	-83.328929
36005		0.620634	-0.350119	-0.559935	-0.422732	16.896580	-82.325601	-83.317518
36006		0.620652	-0.350087	-0.559946	-0.422718	16.902460	-82.324136	-83.319028
36007		0.620685	-0.350067	-0.559947	-0.422685	16.885074	-82.323279	-83.296420
36008		0.620658	-0.350111	-0.559924	-0.422718	16.878488	-82.324129	-83.297387
36009		0.620678	-0.350104	-0.559938	-0.422677	16.864862	-82.325965	-83.278969
36010		0.620664	-0.350168	-0.559901	-0.422693	16.831999	-82.327814	-83.253807
36011		0.620685	-0.350206	-0.559860	-0.422686	16.784607	-82.327333	-83.209389
36012		0.620687	-0.350281	-0.559806	-0.422692	16.727732	-82.328685	-83.160418
36013		0.620706	-0.350335	-0.559738	-0.422709	16.669371	-82.326423	-83.108964
36014		0.620752	-0.350367	-0.559696	-0.422670	16.600737	-82.326199	-83.039746
36015		0.620777	-0.350405	-0.559665	-0.422643	16.549685	-82.327275	-82.989663
36016		0.620848	-0.350377	-0.559682	-0.422538	16.500846	-82.329277	-82.927908
36017		0.620875	-0.350387	-0.559691	-0.422481	16.468780	-82.332487	-82.890970
36018		0.620904	-0.350403	-0.559695	-0.422418	16.428748	-82.336048	-82.846358
36019		0.620938	-0.350417	-0.559711	-0.422337	16.386356	-82.341010	-82.797114
36020		0.621013	-0.350405	-0.559717	-0.422228	16.322220	-82.343325	-82.721155
36021		0.621055	-0.350452	-0.559682	-0.422173	16.246398	-82.345625	-82.644514
36022		0.621087	-0.350522	-0.559619	-0.422152	16.164297	-82.346147	-82.567101
36023		0.621158	-0.350600	-0.559513	-0.422123	16.038589	-82.343400	-82.446228
36024		0.621177	-0.350709	-0.559420	-0.422128	15.939763	-82.343833	-82.358527
36025		0.621227	-0.350794	-0.559327	-0.422107	15.829317	-82.342686	-82.254309
36026		0.621279	-0.350890	-0.559213	-0.422101	15.707948	-82.340179	-82.141814
36027		0.621365	-0.350953	-0.559125	-0.422040	15.579119	-82.338422	-82.013217
36028		0.621507	-0.350922	-0.559067	-0.421932	15.463552	-82.332384	-81.884509
36029		0.621639	-0.350938	-0.558972	-0.421851	15.325255	-82.326101	-81.740118
36030		0.621728	-0.350995	-0.558855	-0.421827	15.197451	-82.319990	-81.615779
36031		0.621855	-0.351018	-0.558751	-0.421758	15.058153	-82.313065	-81.472270
36032		0.622012	-0.351036	-0.558636	-0.421665	14.894057	-82.305067	-81.301291
36033		0.622175	-0.351095	-0.558462	-0.421605	14.694894	-82.293885	-81.102608
36034		0.622332	-0.351202	-0.558233	-0.421587	14.468145	-82.280411	-80.885113
36035		0.622487	-0.351332	-0.557973	-0.421594	14.226890	-82.265033	-80.657776
36036		0.622684	-0.351422	-0.557721	-0.421562	13.975862	-82.247617	-80.413100
36037		0.622843	-0.351556	-0.557458	-0.421564	13.730074	-82.232114	-80.181252
36038		0.623058	-0.351641	-0.557197	-0.421519	13.466882	-82.213328	-79.922788
36039		0.623252	-0.351739	-0.556935	-0.421497	13.216463	-82.194894	-79.680556
36040		0.623478	-0.351811	-0.556665	-0.421461	12.956344	-82.173516	-79.424883
36041		0.623675	-0.351880	-0.556407	-0.421451	12.726564	-82.152398	-79.201775
36042		0.623894	-0.351907	-0.556175	-0.421412	12.508535	-82.130803	-78.983504
36043		0.624071	-0.351953	-0.555946	-0.421411	12.315073	-82.110433	-78.795428
36044		0.624239	-0.352040	-0.555698	-0.421418	12.102543	-82.091366	-78.592872
36045		0.624379	-0.352104	-0.555491	-0.421430	11.932196	-82.074533	-78.430715
36046		0.624539	-0.352113	-0.555320	-0.421411	11.783180	-82.057187	-78.281427
36047		0.624686	-0.352104	-0.555183	-0.421381	11.658940	-82.042057	-78.154086
36048		0.624849	-0.352033	-0.555100	-0.421309	11.564019	-82.028038	-78.045932
36049		0.624972	-0.352041	-0.554982	-0.421275	11.449192	-82.016485	-77.929119
36050		0.625016	-0.352158	-0.554801	-0.421350	11.329437	-82.005857	-77.828484
36051		0.625099	-0.352200	-0.554655	-0.421384	11.229515	-81.993046	-77.736487
36052		0.625163	-0.352199	-0.554582	-0.421385	11.174436	-81.985017	-77.681909
36053		0.625196	-0.352237	-0.554509	-0.421401	11.119532	-81.980045	-77.632435
36054		0.625277	-0.352193	-0.554511	-0.421316	11.076729	-81.977880	-77.577147
36055		0.625301	-0.352186	-0.554471	-0.421337	11.061559	-81.972562	-77.563641
36056		0.625314	-0.352180	-0.554436	-0.421370	11.056930	-81.967566	-77.561812
36057		0.625307	-0.352188	-0.554401	-0.421419	11.060065	-81.963587	-77.570724
36058		0.625265	-0.352223	-0.554370	-0.421493	11.075148	-81.962034	-77.596503
36059		0.625203	-0.352261	-0.554366	-0.421560	11.105740	-81.963754	-77.637085
36060		0.625188	-0.352220	-0.554437	-0.421522	11.145428	-81.968556	-77.668882
36061		0.625125	-0.352227	-0.554491	-0.421537	11.195253	-81.974865	-77.720669
36062		0.625080	-0.352155	-0.554596	-0.421527	11.286073	-81.980018	-77.803266
36063		0.625038	-0.352070	-0.554699	-0.421525	11.383458	-81.983749	-77.892037
36064		0.625007	-0.351963	-0.554817	-0.421505	11.486308	-81.987341	-77.982289
36065		0.624957	-0.351898	-0.554911	-0.421510	11.576793	-81.991595	-78.066784
36066		0.624932	-0.351823	-0.555024	-0.421461	11.650182	-81.998083	-78.127905
36067		0.624842	-0.351834	-0.555106	-0.421478	11.722176	-82.007605	-78.202055
36068		0.624718	-0.351888	-0.555143	-0.421568	11.796209	-82.014840	-78.289817
36069		0.624651	-0.351893	-0.555193	-0.421596	11.852258	-82.020254	-78.348817
36070		0.624595	-0.351905	-0.555241	-0.421607	11.894040	-82.026249	-78.392530
36071		0.624548	-0.351913	-0.555273	-0.421626	11.929942	-82.030106	-78.430889
36072		0.624509	-0.351906	-0.555340	-0.421602	11.968593	-82.037156	-78.466177
36073		0.624497	-0.351883	-0.555417	-0.421538	11.992702	-82.044648	-78.481522
36074		0.624521	-0.351809	-0.555530	-0.421416	12.020188	-82.052455	-78.489622
36075		0.624574	-0.351688	-0.555642	-0.421289	12.054300	-82.056196	-78.499489
36076		0.624644	-0.351555	-0.555749	-0.421156	12.081985	-82.058279	-78.501226
36077		0.624736	-0.351414	-0.555847	-0.421008	12.095961	-82.059003	-78.487145
36078		0.624802	-0.351329	-0.555932	-0.420868	12.092193	-82.063342	-78.461388
36079		0.624876	-0.351272	-0.555968	-0.420758	12.062556	-82.064165	-78.415562
36080		0.624993	-0.351192	-0.555980	-0.420635	12.011482	-82.060617	-78.344866
36081		0.625093	-0.351139	-0.555967	-0.420549	11.957186	-82.056050	-78.277235
36082		0.625224	-0.351104	-0.555919	-0.420447	11.862143	-82.049672	-78.169164
36083		0.625318	-0.351164	-0.555794	-0.420421	11.734296	-82.042053	-78.045032
36084		0.625398	-0.351266	-0.555633	-0.420431	11.591298	-82.033438	-77.913284
36085		0.625470	-0.351381	-0.555493	-0.420412	11.444431	-82.028849	-77.775978
36086		0.625556	-0.351441	-0.555380	-0.420382	11.324164	-82.022435	-77.658932
36087		0.625641	-0.351489	-0.555289	-0.420337	11.213275	-82.017437	-77.548507
36088		0.625737	-0.351475	-0.555235	-0.420277	11.136790	-82.011412	-77.465050
36089		0.625827	-0.351415	-0.555234	-0.420194	11.096690	-82.007381	-77.411409
36090		0.625924	-0.351314	-0.555277	-0.420078	11.079651	-82.005089	-77.373353
36091		0.625990	-0.351230	-0.555301	-0.420017	11.078359	-82.001339	-77.358215
36092		0.626037	-0.351172	-0.555304	-0.419992	11.078797	-81.996946	-77.350753
36093		0.626069	-0.351102	-0.555352	-0.419939	11.098248	-81.996820	-77.358283
36094		0.626083	-0.351026	-0.555424	-0.419887	11.137874	-81.998977	-77.385340
36095		0.626120	-0.350929	-0.555492	-0.419823	11.171680	-81.998894	-77.403556
36096		0.626118	-0.350848	-0.555575	-0.419783	11.229384	-82.001410	-77.449489
36097		0.626147	-0.350695	-0.555689	-0.419717	11.310455	-82.001422	-77.509289
36098		0.626258	-0.350426	-0.555867	-0.419542	11.398393	-81.999999	-77.554221
36099		0.626268	-0.350276	-0.555966	-0.419520	11.495307	-81.997879	-77.634566
36100		0.626295	-0.350108	-0.556061	-0.419494	11.591718	-81.993712	-77.712412
36101		0.626298	-0.349962	-0.556154	-0.419488	11.693704	-81.990900	-77.799686
36102		0.626314	-0.349794	-0.556268	-0.419452	11.797843	-81.989021	-77.884257
36103		0.626331	-0.349656	-0.556354	-0.419429	11.880966	-81.986328	-77.951878
36104		0.626330	-0.349566	-0.556395	-0.419450	11.946916	-81.982346	-78.011315
36105		0.626352	-0.349486	-0.556439	-0.419426	11.983497	-81.980460	-78.037928
36106		0.626361	-0.349469	-0.556435	-0.419433	11.989063	-81.978405	-78.042522
36107		0.626357	-0.349513	-0.556396	-0.419454	11.962245	-81.977715	-78.022026
36108		0.626354	-0.349637	-0.556283	-0.419504	11.878219	-81.975584	-77.955025
36109		0.626353	-0.349805	-0.556108	-0.419597	11.763171	-81.969814	-77.865606
36110		0.626348	-0.350007	-0.555922	-0.419684	11.628191	-81.966059	-77.758742
36111		0.626342	-0.350217	-0.555729	-0.419772	11.487812	-81.962123	-77.647413
36112		0.626344	-0.350381	-0.555580	-0.419831	11.372530	-81.959404	-77.553840
36113		0.626282	-0.350543	-0.555452	-0.419958	11.317013	-81.957568	-77.526428
36114		0.626278	-0.350625	-0.555361	-0.420014	11.264657	-81.953924	-77.487666
36115		0.626251	-0.350661	-0.555344	-0.420048	11.264184	-81.954679	-77.493969
36116		0.626251	-0.350624	-0.555361	-0.420055	11.290489	-81.953090	-77.517468
36117		0.626292	-0.350525	-0.555423	-0.419995	11.323425	-81.952116	-77.534955
36118		0.626357	-0.350414	-0.555470	-0.419928	11.342327	-81.948549	-77.536796
36119		0.626426	-0.350292	-0.555515	-0.419868	11.367167	-81.943757	-77.544217
36120		0.626494	-0.350212	-0.555521	-0.419826	11.363667	-81.937963	-77.529107
36121		0.626520	-0.350231	-0.555460	-0.419851	11.328309	-81.932563	-77.498250
36122		0.626492	-0.350361	-0.555329	-0.419958	11.266343	-81.927837	-77.459514
36123		0.626477	-0.350513	-0.555160	-0.420076	11.176680	-81.920850	-77.396398
36124		0.626435	-0.350692	-0.554975	-0.420234	11.094332	-81.913728	-77.347022
36125		0.626395	-0.350831	-0.554861	-0.420329	11.035020	-81.911892	-77.310491
36126		0.626388	-0.350903	-0.554771	-0.420398	10.993747	-81.907274	-77.283050
36127		0.626431	-0.350930	-0.554690	-0.420418	10.938695	-81.900402	-77.232881
36128		0.626501	-0.350883	-0.554655	-0.420400	10.912263	-81.892578	-77.200559
36129		0.626550	-0.350845	-0.554615	-0.420410	10.897616	-81.884744	-77.183550
36130		0.626528	-0.350899	-0.554546	-0.420489	10.882450	-81.880587	-77.181472
36131		0.626499	-0.350950	-0.554509	-0.420538	10.873730	-81.880190	-77.182457
36132		0.626484	-0.350978	-0.554489	-0.420564	10.867642	-81.880024	-77.181642
36133		0.626460	-0.351038	-0.554457	-0.420593	10.847807	-81.881376	-77.170393
36134		0.626407	-0.351154	-0.554420	-0.420623	10.811757	-81.887088	-77.148180
36135		0.626394	-0.351185	-0.554414	-0.420624	10.800860	-81.889123	-77.140340
36136		0.626415	-0.351166	-0.554422	-0.420597	10.794508	-81.888891	-77.129602
36137		0.626392	-0.351195	-0.554414	-0.420619	10.795062	-81.890197	-77.135043
36138		0.626364	-0.351213	-0.554426	-0.420630	10.806795	-81.892866	-77.149362
36139		0.626332	-0.351219	-0.554456	-0.420633	10.829506	-81.896710	-77.172805
36140		0.626328	-0.351209	-0.554497	-0.420594	10.838368	-81.901010	-77.176690
36141		0.626334	-0.351200	-0.554520	-0.420560	10.836932	-81.903411	-77.171047
36142		0.626362	-0.351175	-0.554553	-0.420498	10.827831	-81.905813	-77.153360
36143		0.626364	-0.351165	-0.554573	-0.420476	10.831842	-81.907420	-77.154154
36144		0.626336	-0.351199	-0.554586	-0.420473	10.831279	-81.911933	-77.156385
36145		0.626260	-0.351271	-0.554599	-0.420507	10.846132	-81.919331	-77.181221
36146		0.626165	-0.351351	-0.554603	-0.420577	10.874872	-81.925593	-77.224212
36147		0.626110	-0.351340	-0.554660	-0.420593	10.930398	-81.930688	-77.280028
36148		0.626106	-0.351292	-0.554761	-0.420506	10.963357	-81.939015	-77.299490
36149		0.626134	-0.351199	-0.554857	-0.420414	11.000200	-81.942874	-77.318231
36150		0.626146	-0.351125	-0.554931	-0.420362	11.040084	-81.945246	-77.345730
36151		0.626165	-0.351053	-0.554988	-0.420318	11.072241	-81.945905	-77.366614
36152		0.626146	-0.351073	-0.554978	-0.420342	11.075903	-81.946195	-77.374593
36153		0.626103	-0.351112	-0.554998	-0.420348	11.085872	-81.951712	-77.388664
36154		0.626052	-0.351154	-0.555024	-0.420354	11.099578	-81.958259	-77.406687
36155		0.626003	-0.351194	-0.555068	-0.420337	11.112504	-81.966902	-77.421371
36156		0.625994	-0.351174	-0.555118	-0.420300	11.132627	-81.971265	-77.435831
36157		0.625985	-0.351150	-0.555183	-0.420248	11.154028	-81.977204	-77.449585
36158		0.626014	-0.351109	-0.555234	-0.420172	11.154234	-81.980420	-77.438285
36159		0.626030	-0.351064	-0.555293	-0.420107	11.169071	-81.984099	-77.442342
36160		0.626056	-0.351001	-0.555368	-0.420022	11.186794	-81.988165	-77.445466
36161		0.626059	-0.350936	-0.555448	-0.419966	11.227912	-81.992158	-77.474675
36162		0.626036	-0.350933	-0.555494	-0.419943	11.249113	-81.997240	-77.493058
36163		0.626031	-0.350904	-0.555560	-0.419886	11.270881	-82.003017	-77.506313
36164		0.626052	-0.350870	-0.555581	-0.419857	11.275726	-82.002697	-77.505040
36165		0.626028	-0.350907	-0.555574	-0.419871	11.270697	-82.004967	-77.504781
36166		0.626003	-0.350967	-0.555557	-0.419879	11.249249	-82.008381	-77.489875
36167		0.625988	-0.350991	-0.555584	-0.419846	11.242388	-82.014097	-77.481849
36168		0.626017	-0.350968	-0.555640	-0.419748	11.228667	-82.019951	-77.456154
36169		0.626014	-0.350966	-0.555685	-0.419695	11.229977	-82.025634	-77.451784
36170		0.626002	-0.350971	-0.555729	-0.419651	11.234693	-82.031634	-77.452473
36171		0.625996	-0.350942	-0.555796	-0.419594	11.256502	-82.037408	-77.465768
36172		0.626041	-0.350886	-0.555846	-0.419508	11.253109	-82.039440	-77.448523
36173		0.626044	-0.350856	-0.555877	-0.419487	11.270495	-82.040529	-77.460914
36174		0.625984	-0.350928	-0.555831	-0.419578	11.276628	-82.040321	-77.482851
36175		0.625987	-0.350898	-0.555862	-0.419557	11.294024	-82.041409	-77.495254
36176		0.625950	-0.350935	-0.555848	-0.419601	11.302779	-82.042305	-77.511729
36177		0.625926	-0.350964	-0.555839	-0.419623	11.303522	-82.043622	-77.517375
36178		0.625902	-0.351041	-0.555781	-0.419672	11.272114	-82.043255	-77.498228
36179		0.625868	-0.351133	-0.555727	-0.419717	11.237496	-82.044773	-77.476758
36180		0.625820	-0.351194	-0.555713	-0.419756	11.237674	-82.047965	-77.486556
36181		0.625787	-0.351244	-0.555730	-0.419742	11.229558	-82.054479	-77.481611
36182		0.625789	-0.351196	-0.555789	-0.419700	11.259511	-82.057387	-77.502716
36183		0.625787	-0.351150	-0.555847	-0.419664	11.292307	-82.060378	-77.527405
36184		0.625801	-0.351113	-0.555906	-0.419596	11.302876	-82.064758	-77.527603
36185		0.625773	-0.351115	-0.555938	-0.419595	11.326552	-82.068423	-77.551149
36186		0.625694	-0.351217	-0.555884	-0.419699	11.327840	-82.069717	-77.572436
36187		0.625660	-0.351264	-0.555885	-0.419709	11.323841	-82.073873	-77.573775
36188		0.625585	-0.351327	-0.555897	-0.419751	11.345582	-82.080127	-77.605501
36189		0.625557	-0.351396	-0.555878	-0.419761	11.321226	-82.084038	-77.588455
36190		0.625539	-0.351397	-0.555910	-0.419744	11.334725	-82.087882	-77.600329
36191		0.625531	-0.351399	-0.555930	-0.419727	11.339034	-82.090659	-77.603018
36192		0.625501	-0.351439	-0.555919	-0.419754	11.338376	-82.092493	-77.608738
36193		0.625481	-0.351487	-0.555910	-0.419755	11.321122	-82.095825	-77.596168
36194		0.625479	-0.351523	-0.555888	-0.419758	11.296910	-82.096494	-77.575681
36195		0.625459	-0.351592	-0.555827	-0.419811	11.267188	-82.095022	-77.557815
36196		0.625441	-0.351677	-0.555780	-0.419827	11.221666	-82.097234	-77.522059
36197		0.625407	-0.351786	-0.555722	-0.419863	11.174405	-82.099971	-77.488719
36198		0.625393	-0.351869	-0.555689	-0.419859	11.126100	-82.103864	-77.447985
36199		0.625372	-0.351920	-0.555673	-0.419869	11.107895	-82.106488	-77.435480
36200		0.625387	-0.351918	-0.555723	-0.419781	11.090098	-82.113450	-77.408669
36201		0.625400	-0.351911	-0.555802	-0.419663	11.077153	-82.123442	-77.383141
36202		0.625416	-0.351916	-0.555862	-0.419556	11.052897	-82.132417	-77.348609
36203		0.625461	-0.351877	-0.555939	-0.419419	11.033579	-82.139813	-77.311852
36204		0.625552	-0.351787	-0.556015	-0.419258	11.009662	-82.142947	-77.263471
36205		0.625563	-0.351809	-0.556048	-0.419180	10.978913	-82.149942	-77.227032
36206		0.625563	-0.351865	-0.556033	-0.419153	10.936163	-82.153745	-77.186870
36207		0.625578	-0.351915	-0.556026	-0.419098	10.882291	-82.158370	-77.132345
36208		0.625628	-0.351920	-0.556038	-0.419004	10.828882	-82.161762	-77.070058
36209		0.625643	-0.351975	-0.556039	-0.418932	10.769776	-82.168023	-77.009150
36210		0.625695	-0.351957	-0.556100	-0.418790	10.728235	-82.175557	-76.951648
36211		0.625726	-0.351966	-0.556118	-0.418712	10.689368	-82.179710	-76.905848
36212		0.625715	-0.352014	-0.556137	-0.418663	10.660179	-82.186916	-76.876375
36213		0.625700	-0.352060	-0.556168	-0.418605	10.634793	-82.195462	-76.849441
36214		0.625697	-0.352092	-0.556203	-0.418537	10.609936	-82.203238	-76.820720
36215		0.625670	-0.352155	-0.556198	-0.418531	10.586519	-82.208520	-76.802562
36216		0.625678	-0.352162	-0.556214	-0.418491	10.571363	-82.211591	-76.784138
36217		0.625685	-0.352139	-0.556257	-0.418442	10.578010	-82.215124	-76.783649
36218		0.625719	-0.352097	-0.556306	-0.418362	10.573989	-82.218147	-76.767697
36219		0.625699	-0.352089	-0.556364	-0.418321	10.594671	-82.224577	-76.783314
36220		0.625726	-0.352062	-0.556382	-0.418281	10.588424	-82.224797	-76.770451
36221		0.625701	-0.352103	-0.556361	-0.418310	10.581602	-82.225678	-76.770442
36222		0.625631	-0.352175	-0.556304	-0.418431	10.598917	-82.223735	-76.806527
36223		0.625609	-0.352216	-0.556272	-0.418472	10.590757	-82.223056	-76.806359
36224		0.625615	-0.352222	-0.556248	-0.418490	10.582246	-82.220717	-76.800342
36225		0.625600	-0.352241	-0.556210	-0.418548	10.585761	-82.217119	-76.811391
36226		0.625574	-0.352227	-0.556199	-0.418613	10.623390	-82.213592	-76.854134
36227		0.625563	-0.352159	-0.556232	-0.418641	10.684284	-82.210793	-76.911313
36228		0.625574	-0.352085	-0.556281	-0.418623	10.728941	-82.209887	-76.947058
36229		0.625562	-0.352065	-0.556287	-0.418649	10.755921	-82.208329	-76.974797
36230		0.625590	-0.351998	-0.556306	-0.418638	10.780327	-82.204647	-76.991721
36231		0.625569	-0.351988	-0.556286	-0.418705	10.810328	-82.200364	-77.027404
36232		0.625533	-0.352003	-0.556257	-0.418784	10.836611	-82.197189	-77.062983
36233		0.625488	-0.352003	-0.556255	-0.418855	10.880875	-82.195625	-77.114131
36234		0.625459	-0.351993	-0.556243	-0.418923	10.918977	-82.192276	-77.158023
36235		0.625441	-0.351935	-0.556272	-0.418959	10.979130	-82.189754	-77.216188
36236		0.625366	-0.351944	-0.556298	-0.419029	11.043049	-82.192086	-77.287670
36237		0.625366	-0.351843	-0.556382	-0.419002	11.115829	-82.192829	-77.347973
36238		0.625381	-0.351748	-0.556485	-0.418923	11.167867	-82.197121	-77.382990
36239		0.625368	-0.351654	-0.556603	-0.418864	11.244881	-82.202682	-77.444856
36240		0.625325	-0.351611	-0.556679	-0.418863	11.314417	-82.207265	-77.510008
36241		0.625304	-0.351558	-0.556770	-0.418819	11.370056	-82.213213	-77.555942
36242		0.625285	-0.351562	-0.556816	-0.418782	11.381318	-82.219294	-77.563814
36243		0.625246	-0.351599	-0.556853	-0.418760	11.387981	-82.227015	-77.571528
36244		0.625260	-0.351585	-0.556924	-0.418657	11.379273	-82.235444	-77.551096
36245		0.625234	-0.351639	-0.556948	-0.418618	11.359706	-82.243557	-77.532699
36246		0.625184	-0.351728	-0.556934	-0.418637	11.339442	-82.249659	-77.522553
36247		0.625185	-0.351769	-0.556976	-0.418546	11.303510	-82.259502	-77.481353
36248		0.625152	-0.351830	-0.557029	-0.418473	11.282576	-82.272141	-77.458687
36249		0.625172	-0.351828	-0.557107	-0.418339	11.256908	-82.282995	-77.419461
36250		0.625189	-0.351870	-0.557134	-0.418244	11.204985	-82.291315	-77.361958
36251		0.625223	-0.351907	-0.557146	-0.418145	11.140202	-82.297754	-77.290929
36252		0.625216	-0.351992	-0.557156	-0.418071	11.078245	-82.307712	-77.229569
36253		0.625200	-0.352095	-0.557154	-0.418012	11.011707	-82.317809	-77.166858
36254		0.625188	-0.352206	-0.557148	-0.417944	10.935154	-82.328202	-77.094020
36255		0.625181	-0.352316	-0.557134	-0.417881	10.854380	-82.337597	-77.017289
36256		0.625221	-0.352338	-0.557177	-0.417745	10.792188	-82.346592	-76.943699
36257		0.625220	-0.352409	-0.557195	-0.417662	10.733558	-82.356439	-76.883511
36258		0.625213	-0.352498	-0.557205	-0.417586	10.667819	-82.366671	-76.818497
36259		0.625233	-0.352548	-0.557230	-0.417479	10.603340	-82.375767	-76.748165
36260		0.625254	-0.352562	-0.557276	-0.417374	10.566651	-82.383934	-76.702360
36261		0.625213	-0.352651	-0.557294	-0.417335	10.532613	-82.394558	-76.672700
36262		0.625143	-0.352797	-0.557252	-0.417373	10.487819	-82.402238	-76.645357
36263		0.625087	-0.352882	-0.557243	-0.417398	10.475816	-82.408341	-76.643750
36264		0.625082	-0.352898	-0.557260	-0.417368	10.465572	-82.412197	-76.632008
36265		0.625055	-0.352944	-0.557260	-0.417370	10.454629	-82.416290	-76.625557
36266		0.624999	-0.353010	-0.557255	-0.417405	10.457976	-82.421038	-76.638548
36267		0.624966	-0.352998	-0.557330	-0.417365	10.493512	-82.429014	-76.668636
36268		0.624961	-0.352925	-0.557459	-0.417262	10.545821	-82.438523	-76.703415
36269		0.624931	-0.352873	-0.557585	-0.417182	10.606371	-82.449226	-76.750710
36270		0.624955	-0.352797	-0.557676	-0.417089	10.635679	-82.454136	-76.763514
36271		0.624954	-0.352759	-0.557758	-0.417013	10.659584	-82.461122	-76.775974
36272		0.624878	-0.352827	-0.557749	-0.417081	10.681808	-82.465063	-76.811208
36273		0.624854	-0.352844	-0.557731	-0.417127	10.694340	-82.463818	-76.829931
36274		0.624828	-0.352901	-0.557668	-0.417203	10.680220	-82.460603	-76.828826
36275		0.624774	-0.353001	-0.557586	-0.417307	10.660079	-82.458728	-76.828612
36276		0.624641	-0.353198	-0.557428	-0.417551	10.648862	-82.454624	-76.860276
36277		0.624630	-0.353245	-0.557350	-0.417632	10.629063	-82.448686	-76.853096
36278		0.624596	-0.353308	-0.557270	-0.417737	10.620422	-82.443657	-76.861004
36279		0.624599	-0.353315	-0.557244	-0.417759	10.613000	-82.441150	-76.856569
36280		0.624610	-0.353320	-0.557196	-0.417803	10.602774	-82.435476	-76.851325
36281		0.624645	-0.353291	-0.557161	-0.417822	10.594255	-82.428702	-76.842101
36282		0.624621	-0.353347	-0.557070	-0.417933	10.582678	-82.421616	-76.847016
36283		0.624619	-0.353383	-0.557017	-0.417975	10.559611	-82.418382	-76.831645
36284		0.624547	-0.353511	-0.556890	-0.418144	10.540381	-82.412796	-76.841428
36285		0.624505	-0.353586	-0.556820	-0.418237	10.527980	-82.410180	-76.845475
36286		0.624463	-0.353656	-0.556771	-0.418306	10.517311	-82.409800	-76.848257
36287		0.624486	-0.353681	-0.556708	-0.418335	10.480450	-82.404515	-76.816879
36288		0.624489	-0.353723	-0.556642	-0.418382	10.449376	-82.400186	-76.794647
36289		0.624543	-0.353683	-0.556620	-0.418365	10.429805	-82.394469	-76.769799
36290		0.624633	-0.353592	-0.556619	-0.418308	10.413569	-82.387176	-76.739479
36291		0.624654	-0.353571	-0.556588	-0.418334	10.412025	-82.381504	-76.738778
36292		0.624666	-0.353569	-0.556541	-0.418383	10.407458	-82.375121	-76.738930
36293		0.624653	-0.353603	-0.556486	-0.418444	10.396968	-82.371184	-76.737965
36294		0.624641	-0.353654	-0.556434	-0.418490	10.373708	-82.369128	-76.724097
36295		0.624661	-0.353615	-0.556449	-0.418473	10.383404	-82.367543	-76.728459
36296		0.624721	-0.353538	-0.556496	-0.418386	10.381336	-82.367405	-76.710475
36297		0.624742	-0.353512	-0.556520	-0.418344	10.379484	-82.368402	-76.702007
36298		0.624785	-0.353503	-0.556529	-0.418276	10.342411	-82.369703	-76.657358
36299		0.624821	-0.353518	-0.556502	-0.418245	10.297219	-82.368574	-76.610703
36300		0.624852	-0.353533	-0.556470	-0.418230	10.256807	-82.366555	-76.570315
36301		0.624869	-0.353575	-0.556426	-0.418227	10.209758	-82.365551	-76.527154
36302		0.624843	-0.353643	-0.556389	-0.418256	10.183357	-82.367018	-76.510165
36303		0.624879	-0.353641	-0.556367	-0.418234	10.151297	-82.364687	-76.475874
36304		0.624916	-0.353613	-0.556363	-0.418208	10.137458	-82.362149	-76.456867
36305		0.624964	-0.353567	-0.556363	-0.418175	10.126858	-82.358583	-76.438750
36306		0.625028	-0.353508	-0.556381	-0.418105	10.109608	-82.356473	-76.409025
36307		0.625065	-0.353486	-0.556370	-0.418083	10.091438	-82.353647	-76.386829
36308		0.625086	-0.353507	-0.556339	-0.418075	10.056653	-82.352203	-76.353330
36309		0.625111	-0.353516	-0.556325	-0.418049	10.025442	-82.351750	-76.320433
36310		0.625151	-0.353516	-0.556292	-0.418034	9.989178	-82.348318	-76.282910
36311		0.625197	-0.353555	-0.556208	-0.418043	9.919447	-82.342345	-76.218121
36312		0.625215	-0.353616	-0.556121	-0.418082	9.860938	-82.337297	-76.169443
36313		0.625247	-0.353640	-0.556044	-0.418115	9.817328	-82.330316	-76.131673
36314		0.625284	-0.353673	-0.555950	-0.418157	9.763105	-82.322085	-76.085099
36315		0.625309	-0.353698	-0.555875	-0.418198	9.726059	-82.315189	-76.054727
36316		0.625323	-0.353708	-0.555852	-0.418199	9.705496	-82.313492	-76.035361
36317		0.625354	-0.353702	-0.555810	-0.418213	9.684583	-82.308033	-76.015385
36318		0.625389	-0.353676	-0.555778	-0.418226	9.674855	-82.301820	-76.004751
36319		0.625396	-0.353656	-0.555750	-0.418269	9.686658	-82.296336	-76.019060
36320		0.625370	-0.353665	-0.555722	-0.418338	9.709207	-82.292851	-76.049298
36321		0.625361	-0.353642	-0.555723	-0.418369	9.736244	-82.290499	-76.077271
36322		0.625334	-0.353625	-0.555718	-0.418431	9.777875	-82.287468	-76.123314
36323		0.625317	-0.353598	-0.555712	-0.418486	9.816724	-82.283576	-76.165084
36324		0.625309	-0.353536	-0.555725	-0.418534	9.874920	-82.278707	-76.222165
36325		0.625283	-0.353449	-0.555791	-0.418559	9.964861	-82.277939	-76.306053
36326		0.625241	-0.353374	-0.555876	-0.418571	10.058465	-82.280661	-76.393530
36327		0.625234	-0.353269	-0.555954	-0.418568	10.143447	-82.279959	-76.468006
36328		0.625228	-0.353177	-0.556007	-0.418583	10.218580	-82.277482	-76.535751
36329		0.625218	-0.353109	-0.556041	-0.418611	10.280097	-82.274721	-76.593557
36330		0.625179	-0.353082	-0.556059	-0.418669	10.339473	-82.273391	-76.655915
36331		0.625129	-0.353061	-0.556098	-0.418708	10.401427	-82.275226	-76.719571
36332		0.625130	-0.352994	-0.556162	-0.418680	10.449178	-82.276787	-76.758002
36333		0.625099	-0.352957	-0.556205	-0.418699	10.505467	-82.278020	-76.812563
36334		0.625095	-0.352887	-0.556251	-0.418703	10.561287	-82.276749	-76.861960
36335		0.625077	-0.352832	-0.556273	-0.418746	10.621489	-82.273579	-76.921203
36336		0.625013	-0.352830	-0.556304	-0.418803	10.683663	-82.275807	-76.988600
36337		0.625006	-0.352748	-0.556378	-0.418783	10.749635	-82.277135	-77.044704
36338		0.624977	-0.352737	-0.556404	-0.418801	10.784406	-82.278739	-77.080019
36339		0.624981	-0.352691	-0.556439	-0.418788	10.814852	-82.278588	-77.104708
36340		0.624959	-0.352709	-0.556445	-0.418798	10.821629	-82.280777	-77.114103
36341		0.624956	-0.352720	-0.556437	-0.418804	10.816219	-82.280687	-77.110343
36342		0.624946	-0.352746	-0.556421	-0.418818	10.806826	-82.281085	-77.104844
36343		0.624930	-0.352795	-0.556423	-0.418799	10.783961	-82.285896	-77.084652
36344		0.624866	-0.352931	-0.556356	-0.418868	10.743716	-82.289520	-77.064170
36345		0.624866	-0.352970	-0.556341	-0.418854	10.712734	-82.291667	-77.035518
36346		0.624877	-0.352964	-0.556345	-0.418838	10.706523	-82.291756	-77.027213
36347		0.624883	-0.352975	-0.556357	-0.418805	10.690934	-82.294609	-77.009240
36348		0.624918	-0.352939	-0.556387	-0.418743	10.682818	-82.295763	-76.991562
36349		0.624921	-0.352942	-0.556409	-0.418705	10.674592	-82.299221	-76.979891
36350		0.624906	-0.353028	-0.556348	-0.418737	10.626268	-82.299613	-76.942973
36351		0.624934	-0.353029	-0.556320	-0.418731	10.600022	-82.296692	-76.916373
36352		0.624972	-0.353004	-0.556340	-0.418670	10.580971	-82.297598	-76.888979
36353		0.624960	-0.353028	-0.556354	-0.418648	10.571828	-82.301726	-76.879851
36354		0.624938	-0.353094	-0.556327	-0.418662	10.543208	-82.304349	-76.858827
36355		0.624935	-0.353136	-0.556317	-0.418644	10.512643	-82.307343	-76.830431
36356		0.624981	-0.353090	-0.556327	-0.418600	10.502887	-82.305099	-76.812055
36357		0.624990	-0.353043	-0.556372	-0.418567	10.528281	-82.306430	-76.829674
36358		0.625013	-0.352967	-0.556445	-0.418499	10.559596	-82.308817	-76.846880
36359		0.625021	-0.352922	-0.556483	-0.418475	10.584270	-82.309454	-76.864804
36360		0.625048	-0.352895	-0.556477	-0.418466	10.580371	-82.306494	-76.857540
36361		0.625074	-0.352862	-0.556469	-0.418465	10.581303	-82.302726	-76.855390
36362		0.625114	-0.352825	-0.556467	-0.418439	10.571373	-82.299634	-76.839474
36363		0.625080	-0.352860	-0.556458	-0.418473	10.578478	-82.301248	-76.853192
36364		0.625037	-0.352918	-0.556433	-0.418521	10.576207	-82.302809	-76.861165
36365		0.625028	-0.352920	-0.556431	-0.418535	10.584076	-82.302549	-76.870621
36366		0.625024	-0.352906	-0.556440	-0.418542	10.598919	-82.302142	-76.884679
36367		0.625034	-0.352863	-0.556459	-0.418537	10.621538	-82.300530	-76.902764
36368		0.625046	-0.352792	-0.556497	-0.418529	10.663410	-82.298538	-76.937073
36369		0.625053	-0.352743	-0.556527	-0.418520	10.693389	-82.297528	-76.961456
36370		0.625018	-0.352760	-0.556521	-0.418565	10.714706	-82.297673	-76.988821
36371		0.625016	-0.352711	-0.556564	-0.418553	10.752394	-82.298293	-77.020557
36372		0.625037	-0.352650	-0.556603	-0.418520	10.776576	-82.297688	-77.035701
36373		0.625052	-0.352598	-0.556638	-0.418496	10.800886	-82.297281	-77.052559
36374		0.625074	-0.352550	-0.556681	-0.418446	10.813525	-82.298665	-77.055760
36375		0.625109	-0.352484	-0.556701	-0.418422	10.829970	-82.295425	-77.063544
36376		0.625105	-0.352477	-0.556688	-0.418453	10.841448	-82.292767	-77.077423
36377		0.625107	-0.352437	-0.556702	-0.418464	10.869659	-82.290534	-77.102959
36378		0.625131	-0.352394	-0.556700	-0.418467	10.880661	-82.286458	-77.110323
36379		0.625161	-0.352392	-0.556645	-0.418498	10.857621	-82.279669	-77.090310
36380		0.625143	-0.352457	-0.556549	-0.418597	10.832117	-82.273126	-77.081018
36381		0.625158	-0.352525	-0.556440	-0.418662	10.772219	-82.266054	-77.034320
36382		0.625135	-0.352586	-0.556367	-0.418741	10.752446	-82.262128	-77.028357
36383		0.625122	-0.352621	-0.556313	-0.418803	10.742153	-82.258235	-77.027616
36384		0.625140	-0.352626	-0.556281	-0.418815	10.723409	-82.254907	-77.010610
36385		0.625162	-0.352620	-0.556253	-0.418825	10.709721	-82.251124	-76.997536
36386		0.625155	-0.352623	-0.556225	-0.418871	10.717034	-82.247430	-77.009645
36387		0.625156	-0.352564	-0.556261	-0.418870	10.759970	-82.246236	-77.046917
36388		0.625173	-0.352436	-0.556359	-0.418823	10.836709	-82.246380	-77.106702
36389		0.625194	-0.352343	-0.556433	-0.418772	10.883707	-82.247088	-77.139599
36390		0.625197	-0.352315	-0.556453	-0.418762	10.900651	-82.247072	-77.152962
36391		0.625249	-0.352266	-0.556448	-0.418734	10.889333	-82.242626	-77.134315
36392		0.625281	-0.352214	-0.556468	-0.418704	10.897850	-82.240676	-77.134967
36393		0.625277	-0.352215	-0.556443	-0.418742	10.903043	-82.237312	-77.144128
36394		0.625220	-0.352315	-0.556354	-0.418860	10.886552	-82.234416	-77.148934
36395		0.625207	-0.352358	-0.556301	-0.418914	10.870249	-82.231478	-77.142058
36396		0.625239	-0.352308	-0.556292	-0.418920	10.879373	-82.225852	-77.147218
36397		0.625274	-0.352203	-0.556346	-0.418885	10.924037	-82.223111	-77.178434
36398		0.625348	-0.352061	-0.556427	-0.418786	10.956635	-82.221054	-77.187741
36399		0.625395	-0.351937	-0.556501	-0.418723	11.003408	-82.219176	-77.216414
36400		0.625438	-0.351815	-0.556560	-0.418681	11.051698	-82.215642	-77.249031
36401		0.625464	-0.351743	-0.556593	-0.418660	11.081603	-82.213062	-77.270042
36402		0.625485	-0.351710	-0.556608	-0.418635	11.085132	-82.212292	-77.267989
36403		0.625486	-0.351740	-0.556599	-0.418621	11.061315	-82.214203	-77.245606
36404		0.625535	-0.351682	-0.556614	-0.418577	11.058091	-82.211468	-77.232591
36405		0.625554	-0.351667	-0.556604	-0.418575	11.052485	-82.208984	-77.225508
36406		0.625544	-0.351702	-0.556591	-0.418577	11.035572	-82.210756	-77.212112
36407		0.625558	-0.351711	-0.556568	-0.418579	11.016266	-82.208963	-77.193994
36408		0.625579	-0.351734	-0.556538	-0.418568	10.979622	-82.207877	-77.158573
36409		0.625578	-0.351731	-0.556548	-0.418559	10.982603	-82.208912	-77.160251
36410		0.625612	-0.351657	-0.556613	-0.418485	11.002866	-82.210724	-77.166028
36411		0.625623	-0.351571	-0.556702	-0.418421	11.051365	-82.213988	-77.199924
36412		0.625691	-0.351418	-0.556853	-0.418247	11.093491	-82.220085	-77.210153
36413		0.625692	-0.351327	-0.556954	-0.418188	11.155779	-82.224017	-77.257599
36414		0.625647	-0.351351	-0.556961	-0.418224	11.179917	-82.226393	-77.287583
36415		0.625657	-0.351292	-0.557018	-0.418184	11.212723	-82.228101	-77.310672
36416		0.625573	-0.351328	-0.557054	-0.418232	11.263562	-82.234330	-77.369386
36417		0.625527	-0.351341	-0.557095	-0.418234	11.295039	-82.239974	-77.402059
36418		0.625495	-0.351368	-0.557104	-0.418249	11.304761	-82.243080	-77.415726
36419		0.625476	-0.351362	-0.557121	-0.418260	11.327162	-82.244176	-77.438452
36420		0.625466	-0.351326	-0.557157	-0.418257	11.362170	-82.244945	-77.469629
36421		0.625459	-0.351289	-0.557177	-0.418272	11.397131	-82.243615	-77.502578
36422		0.625486	-0.351194	-0.557235	-0.418235	11.441119	-82.242083	-77.533791
36423		0.625481	-0.351154	-0.557250	-0.418254	11.475450	-82.239887	-77.566273
36424		0.625517	-0.351053	-0.557297	-0.418224	11.516883	-82.236530	-77.595107
36425		0.625497	-0.351019	-0.557302	-0.418275	11.562328	-82.233098	-77.642416
36426		0.625399	-0.351086	-0.557239	-0.418448	11.610920	-82.229073	-77.714404
36427		0.625374	-0.351074	-0.557216	-0.418527	11.646923	-82.224008	-77.757126
36428		0.625375	-0.351028	-0.557214	-0.418568	11.682792	-82.218832	-77.792665
36429		0.625370	-0.350983	-0.557221	-0.418603	11.722065	-82.214967	-77.831245
36430		0.625346	-0.350942	-0.557248	-0.418638	11.775951	-82.213560	-77.884590
36431		0.625381	-0.350844	-0.557269	-0.418638	11.816351	-82.207114	-77.915818
36432		0.625401	-0.350781	-0.557257	-0.418678	11.847520	-82.199351	-77.945079
36433		0.625420	-0.350708	-0.557257	-0.418710	11.885429	-82.192209	-77.979334
36434		0.625429	-0.350674	-0.557237	-0.418752	11.904236	-82.186228	-77.999227
36435		0.625411	-0.350677	-0.557214	-0.418807	11.921779	-82.182994	-78.022403
36436		0.625364	-0.350717	-0.557141	-0.418941	11.941726	-82.176009	-78.059597
36437		0.625371	-0.350716	-0.557068	-0.419028	11.940650	-82.166454	-78.067277
36438		0.625379	-0.350691	-0.557033	-0.419084	11.955332	-82.159316	-78.085282
36439		0.625380	-0.350658	-0.557026	-0.419120	11.980365	-82.154944	-78.110725
36440		0.625374	-0.350641	-0.556988	-0.419193	12.001586	-82.147920	-78.137791
36441		0.625404	-0.350562	-0.556989	-0.419213	12.032989	-82.140521	-78.163848
36442		0.625479	-0.350438	-0.557024	-0.419158	12.053735	-82.134207	-78.167516
36443		0.625492	-0.350413	-0.556986	-0.419210	12.062702	-82.126950	-78.179355
36444		0.625468	-0.350453	-0.556890	-0.419339	12.061486	-82.117611	-78.195017
36445		0.625449	-0.350496	-0.556805	-0.419445	12.053210	-82.110222	-78.201419
36446		0.625450	-0.350520	-0.556732	-0.419520	12.038441	-82.103119	-78.196607
36447		0.625426	-0.350544	-0.556682	-0.419602	12.046414	-82.098265	-78.215066
36448		0.625431	-0.350542	-0.556638	-0.419655	12.045483	-82.092283	-78.219356
36449		0.625473	-0.350508	-0.556593	-0.419682	12.035109	-82.083793	-78.208672
36450		0.625513	-0.350452	-0.556572	-0.419695	12.040183	-82.076383	-78.209925
36451		0.625549	-0.350402	-0.556555	-0.419706	12.045190	-82.069741	-78.211457
36452		0.625565	-0.350392	-0.556527	-0.419728	12.040133	-82.065430	-78.207742
36453		0.625566	-0.350421	-0.556484	-0.419758	12.018786	-82.062820	-78.192244
36454		0.625563	-0.350445	-0.556448	-0.419791	12.005942	-82.060450	-78.184997
36455		0.625543	-0.350486	-0.556405	-0.419844	11.996742	-82.058317	-78.185029
36456		0.625539	-0.350525	-0.556372	-0.419861	11.973089	-82.058067	-78.166853
36457		0.625520	-0.350578	-0.556338	-0.419890	11.953164	-82.058546	-78.154871
36458		0.625504	-0.350617	-0.556324	-0.419900	11.939589	-82.060260	-78.145916
36459		0.625499	-0.350626	-0.556334	-0.419886	11.936677	-82.062413	-78.142431
36460		0.625530	-0.350574	-0.556386	-0.419816	11.943924	-82.064738	-78.137700
36461		0.625535	-0.350539	-0.556430	-0.419779	11.962825	-82.067088	-78.149534
36462		0.625520	-0.350535	-0.556456	-0.419770	11.978053	-82.069662	-78.163364
36463		0.625518	-0.350510	-0.556496	-0.419741	11.996621	-82.072355	-78.176593
36464		0.625490	-0.350506	-0.556530	-0.419741	12.024523	-82.075670	-78.203939
36465		0.625453	-0.350486	-0.556593	-0.419728	12.070309	-82.081032	-78.246332
36466		0.625426	-0.350455	-0.556690	-0.419667	12.114598	-82.089826	-78.281263
36467		0.625368	-0.350468	-0.556757	-0.419653	12.155384	-82.098551	-78.321649
36468		0.625312	-0.350469	-0.556801	-0.419678	12.206083	-82.102892	-78.374567
36469		0.625266	-0.350431	-0.556888	-0.419661	12.273220	-82.109279	-78.436137
36470		0.625275	-0.350351	-0.556967	-0.419611	12.321306	-82.111512	-78.471452
36471		0.625257	-0.350291	-0.557037	-0.419594	12.379882	-82.114042	-78.522571
36472		0.625247	-0.350232	-0.557114	-0.419557	12.430538	-82.117693	-78.563673
36473		0.625208	-0.350229	-0.557151	-0.419568	12.467624	-82.121242	-78.601357
36474		0.625151	-0.350252	-0.557200	-0.419569	12.502531	-82.128547	-78.638302
36475		0.625073	-0.350286	-0.557249	-0.419591	12.548046	-82.136444	-78.688894
36476		0.625037	-0.350251	-0.557330	-0.419567	12.605060	-82.142508	-78.739910
36477		0.624995	-0.350201	-0.557418	-0.419554	12.678768	-82.147685	-78.807309
36478		0.624963	-0.350136	-0.557512	-0.419531	12.753527	-82.152424	-78.873319
36479		0.624949	-0.350072	-0.557584	-0.419510	12.812687	-82.154721	-78.924154
36480		0.624938	-0.349994	-0.557647	-0.419507	12.879007	-82.154558	-78.982596
36481		0.624919	-0.349922	-0.557708	-0.419515	12.948651	-82.154375	-79.046069
36482		0.624835	-0.349964	-0.557699	-0.419617	12.998731	-82.155122	-79.110023
36483		0.624802	-0.349941	-0.557724	-0.419652	13.046204	-82.154951	-79.158688
36484		0.624720	-0.350001	-0.557726	-0.419722	13.080701	-82.159118	-79.205590
36485		0.624658	-0.350038	-0.557746	-0.419756	13.110777	-82.163941	-79.242353
36486		0.624571	-0.350086	-0.557767	-0.419817	13.157053	-82.169293	-79.298975
36487		0.624488	-0.350116	-0.557798	-0.419875	13.212950	-82.173962	-79.363136
36488		0.624425	-0.350119	-0.557853	-0.419894	13.269493	-82.179661	-79.421602
36489		0.624355	-0.350129	-0.557902	-0.419924	13.327833	-82.185160	-79.483550
36490		0.624306	-0.350094	-0.557967	-0.419940	13.398689	-82.188578	-79.552398
36491		0.624244	-0.350066	-0.558030	-0.419971	13.476470	-82.192128	-79.630383
36492		0.624156	-0.350079	-0.558080	-0.420025	13.549550	-82.197353	-79.709629
36493		0.624070	-0.350070	-0.558156	-0.420059	13.636112	-82.203831	-79.798448
36494		0.624023	-0.350030	-0.558251	-0.420036	13.708052	-82.210662	-79.863901
36495		0.623937	-0.350038	-0.558322	-0.420062	13.782565	-82.218399	-79.941440
36496		0.623850	-0.350059	-0.558377	-0.420101	13.848984	-82.225239	-80.013311
36497		0.623784	-0.350054	-0.558435	-0.420127	13.914894	-82.230172	-80.081061
36498		0.623757	-0.349997	-0.558515	-0.420108	13.980535	-82.233866	-80.139114
36499		0.623692	-0.350025	-0.558530	-0.420162	14.022752	-82.236803	-80.189138
36500		0.623611	-0.350048	-0.558562	-0.420220	14.082680	-82.240900	-80.256815
36501		0.623503	-0.350065	-0.558639	-0.420262	14.171538	-82.249661	-80.351041
36502		0.623412	-0.350099	-0.558674	-0.420324	14.233524	-82.254904	-80.422030
36503		0.623343	-0.350096	-0.558736	-0.420346	14.300866	-82.260626	-80.491041
36504		0.623261	-0.350132	-0.558773	-0.420389	14.352526	-82.266761	-80.550001
36505		0.623199	-0.350127	-0.558840	-0.420395	14.414636	-82.273115	-80.611924
36506		0.623130	-0.350132	-0.558893	-0.420423	14.476689	-82.278465	-80.677008
36507		0.623041	-0.350165	-0.558940	-0.420465	14.537232	-82.285327	-80.744443
36508		0.622924	-0.350258	-0.558932	-0.420570	14.581185	-82.290642	-80.807465
36509		0.622862	-0.350281	-0.558950	-0.420620	14.624107	-82.293338	-80.857336
36510		0.622794	-0.350297	-0.558979	-0.420670	14.678329	-82.296635	-80.917673
36511		0.622768	-0.350283	-0.558996	-0.420696	14.713498	-82.296550	-80.954122
36512		0.622783	-0.350213	-0.559056	-0.420653	14.749614	-82.297428	-80.979212
36513		0.622748	-0.350207	-0.559054	-0.420712	14.788083	-82.295319	-81.022879
36514		0.622760	-0.350122	-0.559100	-0.420704	14.838421	-82.292464	-81.064337
36515		0.622716	-0.350124	-0.559113	-0.420750	14.879779	-82.292906	-81.110384
36516		0.622635	-0.350190	-0.559072	-0.420870	14.910753	-82.291846	-81.159395
36517		0.622557	-0.350204	-0.559076	-0.420968	14.975805	-82.291179	-81.235365
36518		0.622478	-0.350227	-0.559049	-0.421102	15.035547	-82.287365	-81.310489
36519		0.622388	-0.350274	-0.559043	-0.421203	15.088075	-82.288525	-81.377298
36520		0.622278	-0.350339	-0.559030	-0.421328	15.146900	-82.290129	-81.454492
36521		0.622233	-0.350288	-0.559074	-0.421380	15.228098	-82.288739	-81.535829
36522		0.622210	-0.350204	-0.559127	-0.421412	15.311073	-82.285811	-81.613929
36523		0.622184	-0.350116	-0.559193	-0.421437	15.400352	-82.283873	-81.697094
36524		0.622177	-0.350010	-0.559255	-0.421452	15.484462	-82.280190	-81.772614
36525		0.622123	-0.349909	-0.559325	-0.421525	15.610540	-82.276239	-81.896133
36526		0.622039	-0.349818	-0.559399	-0.421625	15.757236	-82.273067	-82.043898
36527		0.621964	-0.349739	-0.559484	-0.421689	15.887286	-82.272783	-82.172439
36528		0.621943	-0.349628	-0.559563	-0.421707	15.987634	-82.270136	-82.263929
36529		0.621926	-0.349483	-0.559652	-0.421733	16.108526	-82.265331	-82.373495
36530		0.621954	-0.349301	-0.559747	-0.421717	16.213776	-82.258643	-82.459729
36531		0.622004	-0.349093	-0.559855	-0.421672	16.315725	-82.251709	-82.537516
36532		0.622130	-0.348827	-0.559987	-0.421531	16.386521	-82.244251	-82.569240
36533		0.622302	-0.348536	-0.560082	-0.421392	16.431758	-82.230802	-82.573340
36534		0.622611	-0.348154	-0.560098	-0.421231	16.410076	-82.201665	-82.500332
36535		0.623095	-0.347621	-0.560050	-0.421019	16.328686	-82.153781	-82.348869
36536		0.623865	-0.346837	-0.559985	-0.420610	16.156934	-82.086411	-82.064704
36537		0.624816	-0.345904	-0.559880	-0.420106	15.924281	-82.003798	-81.696673
36538		0.625925	-0.344842	-0.559768	-0.419477	15.639129	-81.911851	-81.252301
36539		0.627207	-0.343691	-0.559647	-0.418668	15.264892	-81.815186	-80.693084
36540		0.628767	-0.342422	-0.559486	-0.417583	14.728295	-81.709949	-79.934154
36541		0.630645	-0.341072	-0.559252	-0.416166	13.975070	-81.596654	-78.919576
36542		0.632828	-0.339698	-0.558917	-0.414422	12.988150	-81.475832	-77.638262
36543		0.635487	-0.338122	-0.558458	-0.412257	11.754457	-81.329073	-76.052137
36544		0.638626	-0.336342	-0.557823	-0.409713	10.294511	-81.147456	-74.186285
36545		0.642099	-0.334655	-0.556893	-0.406922	8.566247	-80.937628	-72.039875
36546		0.645811	-0.333213	-0.555658	-0.403908	6.572064	-80.706712	-69.631694
36547		0.649764	-0.332009	-0.554140	-0.400632	4.341662	-80.451962	-66.987275
36548		0.653955	-0.331101	-0.552225	-0.397192	1.887198	-80.158042	-64.134467
36549		0.658508	-0.330308	-0.549947	-0.393473	-0.726381	-79.809393	-61.111036
36550		0.663234	-0.329836	-0.547296	-0.389610	-3.449828	-79.415577	-57.998140
36551		0.668102	-0.329647	-0.544331	-0.385586	-6.216247	-78.977302	-54.857801
36552		0.673135	-0.329663	-0.541036	-0.381433	-8.955420	-78.484214	-51.756459
36553		0.678377	-0.329759	-0.537389	-0.377197	-11.581439	-77.924306	-48.773765
36554		0.683882	-0.329872	-0.533384	-0.372815	-14.070829	-77.292658	-45.921959
36555		0.689666	-0.330103	-0.528960	-0.368232	-16.468038	-76.586113	-43.161809
36556		0.695552	-0.330572	-0.524212	-0.363498	-18.762718	-75.826391	-40.518756
36557		0.701575	-0.331120	-0.519280	-0.358469	-20.927320	-75.021058	-37.991798
36558		0.707717	-0.331670	-0.514106	-0.353308	-22.898976	-74.164034	-35.652777
36559		0.714113	-0.332034	-0.508746	-0.347814	-24.677789	-73.250792	-33.465940
36560		0.720675	-0.332303	-0.503134	-0.342138	-26.270417	-72.284504	-31.447871
36561		0.727419	-0.332474	-0.497300	-0.336177	-27.710837	-71.268059	-29.554934
36562		0.734222	-0.332659	-0.491249	-0.330048	-29.019262	-70.212947	-27.787762
36563		0.741052	-0.332854	-0.485002	-0.323764	-30.204822	-69.124338	-26.138081
36564		0.747923	-0.333018	-0.478495	-0.317414	-31.253871	-67.997125	-24.624668
36565		0.754875	-0.333193	-0.471653	-0.310950	-32.197957	-66.822593	-23.216759
36566		0.761921	-0.333437	-0.464426	-0.304308	-33.068275	-65.595088	-21.883847
36567		0.769044	-0.333624	-0.456941	-0.297441	-33.849708	-64.327237	-20.623823
36568		0.776165	-0.333726	-0.449267	-0.290438	-34.534788	-63.032526	-19.448542
36569		0.783263	-0.333705	-0.441472	-0.283270	-35.131337	-61.719018	-18.343143
36570		0.790392	-0.333533	-0.433458	-0.275954	-35.637478	-60.375428	-17.309917
36571		0.797460	-0.333359	-0.425161	-0.268639	-36.076578	-59.004180	-16.353159
36572		0.804511	-0.333083	-0.416593	-0.261280	-36.440876	-57.603819	-15.467412
36573		0.811495	-0.332791	-0.407734	-0.253926	-36.749995	-56.176639	-14.645595
36574		0.818406	-0.332517	-0.398585	-0.246524	-37.020852	-54.721582	-13.869093
36575		0.825196	-0.332211	-0.389251	-0.239103	-37.249788	-53.252768	-13.137744
36576		0.831853	-0.331859	-0.379772	-0.231655	-37.440216	-51.774591	-12.445041
36577		0.838393	-0.331393	-0.370166	-0.224174	-37.585687	-50.288213	-11.790185
36578		0.844827	-0.330797	-0.360443	-0.216614	-37.690714	-48.793000	-11.162575
36579		0.851131	-0.330024	-0.350678	-0.209010	-37.750880	-47.299029	-10.563433
36580		0.857327	-0.329069	-0.340813	-0.201371	-37.766704	-45.799689	-9.993116
36581		0.863356	-0.327968	-0.330882	-0.193831	-37.741312	-44.305062	-9.462685
36582		0.869268	-0.326672	-0.320833	-0.186346	-37.671524	-42.806749	-8.967414
36583		0.875050	-0.325225	-0.310678	-0.178873	-37.569783	-41.304905	-8.494539
36584		0.880736	-0.323598	-0.300360	-0.171382	-37.433914	-39.791416	-8.041795
36585		0.886246	-0.321824	-0.290036	-0.163940	-37.271101	-38.287362	-7.606788
36586		0.891564	-0.319834	-0.279849	-0.156540	-37.076278	-36.808339	-7.183587
36587		0.896694	-0.317607	-0.269803	-0.149238	-36.845380	-35.356276	-6.778321
36588		0.901662	-0.315195	-0.259773	-0.142044	-36.585133	-33.917464	-6.392403
36589		0.906421	-0.312707	-0.249787	-0.134990	-36.311144	-32.496572	-6.022838
36590		0.910960	-0.310173	-0.239844	-0.128139	-36.026379	-31.095580	-5.674802
36591		0.915299	-0.307520	-0.229965	-0.121556	-35.720062	-29.718189	-5.357113
36592		0.919488	-0.304604	-0.220244	-0.115110	-35.379409	-28.369093	-5.053719
36593		0.923474	-0.301560	-0.210728	-0.108865	-35.021886	-27.056112	-4.764750
36594		0.927304	-0.298344	-0.201308	-0.102823	-34.640791	-25.766293	-4.494941
36595		0.931077	-0.294812	-0.191895	-0.096738	-34.223048	-24.480084	-4.221532
36596		0.934753	-0.291057	-0.182505	-0.090636	-33.780692	-23.200800	-3.943157
36597		0.938212	-0.287231	-0.173464	-0.084660	-33.332821	-21.970296	-3.660622
36598		0.941459	-0.283369	-0.164724	-0.078889	-32.881596	-20.785507	-3.384014
36599		0.944480	-0.279561	-0.156247	-0.073418	-32.435974	-19.645187	-3.123878
36600		0.947304	-0.275823	-0.147961	-0.068145	-31.998937	-18.537172	-2.870860
36601		0.949927	-0.272234	-0.139827	-0.063058	-31.579997	-17.456670	-2.623843
36602		0.952379	-0.268792	-0.131657	-0.058231	-31.176290	-16.384297	-2.397804
36603		0.954671	-0.265483	-0.123438	-0.053722	-30.785264	-15.319963	-2.200514
36604		0.956763	-0.262388	-0.115348	-0.049507	-30.418723	-14.282441	-2.022538
36605		0.958580	-0.259761	-0.107646	-0.045394	-30.110852	-13.294556	-1.831454
36606		0.960157	-0.257547	-0.100312	-0.041296	-29.855079	-12.351130	-1.620877
36607		0.961559	-0.255583	-0.093239	-0.037260	-29.629617	-11.440775	-1.402805
36608		0.962844	-0.253702	-0.086370	-0.033284	-29.413779	-10.556805	-1.181459
36609		0.964032	-0.251851	-0.079669	-0.029425	-29.200430	-9.696454	-0.965126
36610		0.965134	-0.250015	-0.073129	-0.025705	-28.987460	-8.859480	-0.756827
36611		0.966168	-0.248123	-0.066819	-0.022140	-28.766693	-8.053865	-0.556905
36612		0.967157	-0.246110	-0.060760	-0.018609	-28.531398	-7.278268	-0.351623
36613		0.968117	-0.243896	-0.055118	-0.015050	-28.272912	-6.549580	-0.130052
36614		0.969063	-0.241428	-0.050007	-0.011362	-27.985540	-5.877713	0.122359
36615		0.970025	-0.238601	-0.045439	-0.007566	-27.656387	-5.265063	0.403099
36616		0.971007	-0.235419	-0.041339	-0.003800	-27.285143	-4.707581	0.694754
36617		0.971981	-0.232028	-0.037617	-0.000227	-26.888199	-4.199597	0.977560
36618		0.972898	-0.228680	-0.034144	0.002975	-26.494574	-3.731270	1.229068
36619		0.973736	-0.225514	-0.030802	0.005693	-26.120451	-3.291630	1.433772
36620		0.974502	-0.222522	-0.027642	0.008058	-25.765719	-2.882472	1.606908
36621		0.975200	-0.219710	-0.024647	0.010223	-25.431671	-2.497655	1.764890
36622		0.975799	-0.217226	-0.021890	0.012257	-25.136149	-2.143129	1.917174
36623		0.976237	-0.215363	-0.019488	0.014145	-24.914001	-1.831337	2.064856
36624		0.976504	-0.214193	-0.017597	0.015842	-24.773797	-1.580447	2.206006
36625		0.976640	-0.213567	-0.016299	0.017286	-24.698527	-1.401233	2.334806
36626		0.976674	-0.213378	-0.015459	0.018425	-24.675335	-1.279740	2.441388
36627		0.976654	-0.213443	-0.014840	0.019229	-24.681918	-1.190598	2.516302
36628		0.976597	-0.213684	-0.014376	0.019768	-24.709374	-1.124887	2.565597
36629		0.976510	-0.214063	-0.014189	0.020118	-24.753564	-1.094376	2.600583
36630		0.976402	-0.214531	-0.014334	0.020250	-24.809100	-1.106000	2.619497
36631		0.976266	-0.215121	-0.014915	0.020115	-24.879926	-1.172744	2.619478
36632		0.976079	-0.215944	-0.015933	0.019613	-24.979287	-1.296938	2.589494
36633		0.975834	-0.217014	-0.017347	0.018757	-25.108286	-1.473455	2.530540
36634		0.975537	-0.218295	-0.019117	0.017603	-25.262683	-1.697008	2.447894
36635		0.975185	-0.219766	-0.021300	0.016207	-25.440234	-1.972447	2.349502
36636		0.974800	-0.221320	-0.023855	0.014590	-25.628196	-2.295224	2.237155
36637		0.974366	-0.223003	-0.026753	0.012816	-25.831613	-2.660501	2.117416
36638		0.973885	-0.224790	-0.029968	0.010886	-26.047802	-3.065427	1.990052
36639		0.973351	-0.226712	-0.033347	0.008766	-26.279430	-3.493864	1.847793
36640		0.972783	-0.228659	-0.036949	0.006509	-26.513750	-3.951365	1.697964
36641		0.972175	-0.230621	-0.040896	0.004104	-26.750238	-4.451952	1.542833
36642		0.971501	-0.232674	-0.045243	0.001541	-26.997628	-5.001994	1.383241
36643		0.970750	-0.234833	-0.049969	-0.001242	-27.257512	-5.600844	1.212362
36644		0.969934	-0.237031	-0.055006	-0.004291	-27.521183	-6.242585	1.023250
36645		0.969061	-0.239217	-0.060331	-0.007547	-27.782668	-6.923269	0.821824
36646		0.968132	-0.241344	-0.065983	-0.010970	-28.036709	-7.646184	0.613241
36647		0.967151	-0.243377	-0.071942	-0.014532	-28.279044	-8.408622	0.400144
36648		0.966102	-0.245358	-0.078188	-0.018261	-28.514351	-9.209008	0.178970
36649		0.964941	-0.247433	-0.084696	-0.022176	-28.759580	-10.045349	-0.051409
36650		0.963632	-0.249714	-0.091461	-0.026298	-29.027995	-10.917980	-0.292008
36651		0.962151	-0.252284	-0.098386	-0.030622	-29.329047	-11.816355	-0.543428
36652		0.960482	-0.255191	-0.105424	-0.035171	-29.668181	-12.736441	-0.808068
36653		0.958568	-0.258553	-0.112722	-0.039896	-30.061217	-13.693843	-1.073200
36654		0.956388	-0.262372	-0.120338	-0.044749	-30.510281	-14.694288	-1.329745
36655		0.953970	-0.266516	-0.128222	-0.049696	-31.000434	-15.731482	-1.575920
36656		0.951346	-0.270797	-0.136352	-0.054933	-31.506254	-16.809317	-1.836145
36657		0.948558	-0.275055	-0.144632	-0.060540	-32.006152	-17.919925	-2.125387
36658		0.945651	-0.279120	-0.152959	-0.066636	-32.475535	-19.055942	-2.464312
36659		0.942646	-0.282926	-0.161306	-0.073160	-32.905263	-20.212686	-2.849558
36660		0.939488	-0.286591	-0.169830	-0.079909	-33.314180	-21.401964	-3.251259
36661		0.936174	-0.290069	-0.178670	-0.086695	-33.701175	-22.633012	-3.644412
36662		0.932708	-0.293339	-0.187867	-0.093346	-34.068038	-23.904597	-4.008715
36663		0.929056	-0.296514	-0.197379	-0.099878	-34.429632	-25.212884	-4.344318
36664		0.925235	-0.299557	-0.207081	-0.106408	-34.777612	-26.548028	-4.670566
36665		0.921223	-0.302548	-0.216835	-0.113122	-35.116500	-27.901675	-5.012411
36666		0.917044	-0.305408	-0.226496	-0.120232	-35.427118	-29.265181	-5.404690
36667		0.912738	-0.308065	-0.235972	-0.127757	-35.695295	-30.628988	-5.858316
36668		0.908276	-0.310521	-0.245399	-0.135615	-35.923026	-32.005619	-6.360761
36669		0.903680	-0.312620	-0.254983	-0.143582	-36.096564	-33.409440	-6.885705
36670		0.899088	-0.314035	-0.264665	-0.151578	-36.169255	-34.828003	-7.443003
36671		0.894551	-0.314746	-0.274380	-0.159466	-36.138262	-36.247582	-8.024563
36672		0.890053	-0.314846	-0.284164	-0.167119	-36.018483	-37.667317	-8.613603
36673		0.885545	-0.314489	-0.294053	-0.174468	-35.832737	-39.089325	-9.196416
36674		0.880924	-0.313938	-0.304039	-0.181596	-35.614537	-40.518206	-9.773365
36675		0.876153	-0.313297	-0.314012	-0.188674	-35.368246	-41.948833	-10.368505
36676		0.871225	-0.312549	-0.323851	-0.195962	-35.074003	-43.376482	-11.026039
36677		0.866191	-0.311708	-0.333389	-0.203476	-34.724692	-44.781745	-11.759474
36678		0.861098	-0.310812	-0.342598	-0.211031	-34.331285	-46.153786	-12.545434
36679		0.856017	-0.309800	-0.351487	-0.218439	-33.891633	-47.485255	-13.363677
36680		0.850982	-0.308587	-0.360109	-0.225665	-33.392160	-48.778458	-14.215516
36681		0.846012	-0.307089	-0.368574	-0.232623	-32.823467	-50.041314	-15.093362
36682		0.841075	-0.305257	-0.377019	-0.239306	-32.176310	-51.288249	-15.998869
36683		0.836155	-0.303074	-0.385514	-0.245704	-31.444991	-52.526226	-16.934556
36684		0.831155	-0.300621	-0.394055	-0.252051	-30.619907	-53.763573	-17.938802
36685		0.826055	-0.298162	-0.402436	-0.258415	-29.733561	-54.981510	-19.012968
36686		0.820904	-0.295754	-0.410440	-0.264923	-28.777172	-56.157193	-20.185959
36687		0.815656	-0.293512	-0.418100	-0.271568	-27.767893	-57.295448	-21.449221
36688		0.810283	-0.291441	-0.425492	-0.278316	-26.705666	-58.403991	-22.798645
36689		0.804806	-0.289466	-0.432670	-0.285120	-25.575506	-59.484967	-24.237395
36690		0.799253	-0.287469	-0.439676	-0.291961	-24.349255	-60.538305	-25.780421
36691		0.793661	-0.285412	-0.446545	-0.298731	-23.023230	-61.561982	-27.418108
36692		0.787987	-0.283356	-0.453370	-0.305355	-21.611068	-62.566719	-29.134027
36693		0.782243	-0.281393	-0.460131	-0.311758	-20.136072	-63.549720	-30.906682
36694		0.776364	-0.279604	-0.466907	-0.317929	-18.609680	-64.524300	-32.729416
36695		0.770386	-0.278021	-0.473663	-0.323810	-17.043677	-65.485894	-34.588737
36696		0.764339	-0.276607	-0.480370	-0.329422	-15.424600	-66.430036	-36.496839
36697		0.758300	-0.275257	-0.487009	-0.334720	-13.733515	-67.348593	-38.459538
36698		0.752329	-0.273812	-0.493564	-0.339740	-11.924779	-68.232166	-40.511976
36699		0.746415	-0.272256	-0.500088	-0.344461	-9.987118	-69.084731	-42.661459
36700		0.740499	-0.270624	-0.506608	-0.348959	-7.902014	-69.910671	-44.935851
36701		0.734592	-0.269034	-0.513066	-0.353211	-5.700497	-70.706848	-47.313144
36702		0.728652	-0.267730	-0.519338	-0.357316	-3.432689	-71.470857	-49.774565
36703		0.722719	-0.266831	-0.525293	-0.361311	-1.142943	-72.193801	-52.290506
36704		0.716722	-0.266497	-0.530875	-0.365322	1.143091	-72.880835	-54.861027
36705		0.710631	-0.266810	-0.536025	-0.369449	3.409900	-73.531928	-57.486874
36706		0.704508	-0.267711	-0.540681	-0.373716	5.651061	-74.138124	-60.159252
36707		0.698379	-0.269090	-0.544877	-0.378111	7.883273	-74.698718	-62.883469
36708		0.692288	-0.270680	-0.548720	-0.382591	10.173683	-75.209120	-65.698640
36709		0.686315	-0.272329	-0.552323	-0.386973	12.525077	-75.673841	-68.575972
36710		0.680535	-0.273965	-0.555756	-0.391090	14.910146	-76.098897	-71.465666
36711		0.675061	-0.275514	-0.559070	-0.394747	17.283094	-76.490079	-74.296207
36712		0.669869	-0.276917	-0.562334	-0.397961	19.672893	-76.851678	-77.091925
36713		0.664920	-0.278167	-0.565577	-0.400783	22.096862	-77.186260	-79.873970
36714		0.660140	-0.279280	-0.568841	-0.403284	24.590047	-77.497736	-82.684732
36715		0.655515	-0.280214	-0.572143	-0.405503	27.172637	-77.782686	-85.544336
36716		0.651018	-0.280900	-0.575511	-0.407503	29.884073	-78.033817	-88.491694
36717		0.646740	-0.281346	-0.578836	-0.409294	32.642278	-78.242411	-91.446761
36718		0.642647	-0.281635	-0.582074	-0.410946	35.412299	-78.409748	-94.388739
36719		0.638785	-0.281790	-0.585121	-0.412531	38.117706	-78.529433	-97.250067
36720		0.635189	-0.281932	-0.587947	-0.413966	40.675257	-78.618589	-99.950364
36721		0.631849	-0.282059	-0.590609	-0.415199	43.090049	-78.687786	-102.488680
36722		0.628691	-0.282086	-0.593194	-0.416289	45.433930	-78.733636	-104.934664
36723		0.625715	-0.281967	-0.595700	-0.417273	47.702064	-78.751780	-107.282852
36724		0.623176	-0.281663	-0.598097	-0.417848	49.762678	-78.761632	-109.368418
36725		0.621135	-0.281284	-0.600415	-0.417819	51.588002	-78.792241	-111.153697
36726		0.619614	-0.280765	-0.602684	-0.417158	53.198269	-78.845884	-112.650395
36727		0.618578	-0.280106	-0.604854	-0.415996	54.594277	-78.915741	-113.871845
36728		0.617981	-0.279230	-0.606907	-0.414480	55.794183	-78.987256	-114.843853
36729		0.617828	-0.278112	-0.608786	-0.412701	56.768935	-79.053202	-115.544248
36730		0.617994	-0.276953	-0.610436	-0.410791	57.525294	-79.121715	-116.010370
36731		0.618373	-0.275992	-0.611728	-0.408940	58.029092	-79.198042	-116.248023
36732		0.618874	-0.275227	-0.612735	-0.407187	58.346092	-79.280225	-116.326316
36733		0.619510	-0.274720	-0.613406	-0.405547	58.440659	-79.372493	-116.216508
36734		0.620272	-0.274461	-0.613722	-0.404078	58.301563	-79.469132	-115.911907
36735		0.621203	-0.274315	-0.613728	-0.402736	57.935106	-79.562128	-115.402634
36736		0.622320	-0.274227	-0.613497	-0.401421	57.365801	-79.654825	-114.698626
36737		0.623662	-0.274212	-0.613006	-0.400096	56.559819	-79.749618	-113.763724
36738		0.625196	-0.274348	-0.612258	-0.398753	55.519020	-79.852044	-112.606206
36739		0.626879	-0.274602	-0.611324	-0.397365	54.290439	-79.960303	-111.267368
36740		0.628681	-0.274896	-0.610291	-0.395901	52.926643	-80.070174	-109.790185
36741		0.630614	-0.275295	-0.609112	-0.394362	51.387183	-80.184172	-108.139984
36742		0.632717	-0.275883	-0.607652	-0.392831	49.572886	-80.297110	-106.233317
36743		0.634913	-0.276712	-0.605929	-0.391364	47.514614	-80.406457	-104.111204
36744		0.637173	-0.277813	-0.603923	-0.390009	45.207878	-80.507244	-101.776496
36745		0.639418	-0.279189	-0.601723	-0.388753	42.726766	-80.600911	-99.302159
36746		0.641662	-0.280775	-0.599392	-0.387510	40.093355	-80.687691	-96.696639
36747		0.643967	-0.282473	-0.597011	-0.386126	37.314646	-80.769564	-93.943355
36748		0.646408	-0.284191	-0.594586	-0.384525	34.365474	-80.839907	-91.001910
36749		0.649001	-0.285748	-0.592244	-0.382614	31.331798	-80.893406	-87.933263
36750		0.651818	-0.287154	-0.589938	-0.380327	28.151332	-80.927482	-84.670044
36751		0.654849	-0.288433	-0.587648	-0.377690	24.827694	-80.937482	-81.220679
36752		0.658118	-0.289560	-0.585294	-0.374789	21.372390	-80.906854	-77.603213
36753		0.661590	-0.290570	-0.582828	-0.371725	17.834785	-80.826566	-73.879780
36754		0.665308	-0.291510	-0.580149	-0.368530	14.205379	-80.685858	-70.048858
36755		0.669323	-0.292368	-0.577203	-0.365192	10.515365	-80.474035	-66.139896
36756		0.673559	-0.293255	-0.574032	-0.361672	6.808117	-80.201847	-62.202882
36757		0.677911	-0.294230	-0.570696	-0.358010	3.166004	-79.878477	-58.328805
36758		0.682403	-0.295290	-0.567173	-0.354183	-0.392026	-79.499645	-54.534666
36759		0.687067	-0.296438	-0.563354	-0.350280	-3.828676	-79.050794	-50.867336
36760		0.691886	-0.297767	-0.559191	-0.346315	-7.144625	-78.531768	-47.336159
36761		0.696849	-0.299306	-0.554660	-0.342299	-10.319174	-77.941249	-43.966072
36762		0.701964	-0.301089	-0.549736	-0.338203	-13.353573	-77.277775	-40.756812
36763		0.707154	-0.303164	-0.544463	-0.334043	-16.234149	-76.551241	-37.727800
36764		0.712292	-0.305605	-0.538948	-0.329820	-18.970765	-75.781357	-34.875507
36765		0.717329	-0.308404	-0.533191	-0.325627	-21.542305	-74.971436	-32.228952
36766		0.722467	-0.311312	-0.527116	-0.321365	-23.907863	-74.099078	-29.799298
36767		0.727739	-0.314174	-0.520759	-0.317017	-26.032461	-73.166649	-27.606245
36768		0.733287	-0.316888	-0.514011	-0.312514	-27.918986	-72.156818	-25.633171
36769		0.739053	-0.319450	-0.506931	-0.307854	-29.583485	-71.082256	-23.863419
36770		0.744928	-0.321903	-0.499643	-0.303016	-31.065180	-69.964152	-22.258736
36771		0.750840	-0.324220	-0.492253	-0.298007	-32.378532	-68.819293	-20.801762
36772		0.756870	-0.326423	-0.484639	-0.292781	-33.552413	-67.631986	-19.463140
36773		0.763046	-0.328562	-0.476697	-0.287346	-34.608927	-66.391763	-18.227734
36774		0.769349	-0.330612	-0.468489	-0.281630	-35.564271	-65.105448	-17.070282
36775		0.775711	-0.332541	-0.460096	-0.275683	-36.417102	-63.786490	-15.992722
36776		0.782160	-0.334209	-0.451579	-0.269456	-37.155056	-62.439590	-14.989692
36777		0.788692	-0.335568	-0.442936	-0.262996	-37.773404	-61.067058	-14.065531
36778		0.795310	-0.336648	-0.434066	-0.256391	-38.278120	-59.662079	-13.226244
36779		0.801970	-0.337548	-0.424915	-0.249706	-38.692440	-58.223983	-12.464236
36780		0.808541	-0.338443	-0.415606	-0.242877	-39.071551	-56.769107	-11.732444
36781		0.814956	-0.339389	-0.406216	-0.235903	-39.432810	-55.307915	-11.017281
36782		0.821261	-0.340282	-0.396706	-0.228828	-39.754314	-53.835952	-10.335460
36783		0.827461	-0.340971	-0.387131	-0.221758	-40.007433	-52.363256	-9.709809
36784		0.833631	-0.341489	-0.377340	-0.214612	-40.204738	-50.868557	-9.126283
36785		0.839724	-0.341870	-0.367417	-0.207348	-40.362352	-49.361197	-8.566285
36786		0.845700	-0.342092	-0.357479	-0.199934	-40.485548	-47.853509	-8.017060
36787		0.851590	-0.341980	-0.347567	-0.192462	-40.544687	-46.352993	-7.498630
36788		0.857426	-0.341469	-0.337668	-0.184933	-40.532744	-44.857710	-7.011243
36789		0.863099	-0.340721	-0.327882	-0.177378	-40.481571	-43.382249	-6.538267
36790		0.868617	-0.339808	-0.318097	-0.169853	-40.398563	-41.916195	-6.085801
36791		0.873965	-0.338730	-0.308343	-0.162393	-40.285089	-40.464543	-5.654354
36792		0.879180	-0.337512	-0.298477	-0.155050	-40.140550	-39.012685	-5.254228
36793		0.884217	-0.336207	-0.288557	-0.147849	-39.975973	-37.568495	-4.880316
36794		0.889056	-0.334890	-0.278674	-0.140604	-39.812249	-36.134813	-4.499596
36795		0.893697	-0.333429	-0.268998	-0.133310	-39.634497	-34.729585	-4.109338
36796		0.898146	-0.331805	-0.259510	-0.126070	-39.435894	-33.354488	-3.723536
36797		0.902415	-0.330035	-0.250116	-0.119021	-39.213142	-32.004006	-3.361225
36798		0.906501	-0.328213	-0.240775	-0.112071	-38.982245	-30.669985	-3.007840
36799		0.910424	-0.326320	-0.231435	-0.105263	-38.738426	-29.347623	-2.671230
36800		0.914166	-0.324416	-0.222090	-0.098644	-38.489250	-28.038088	-2.354144
36801		0.917723	-0.322492	-0.212808	-0.092175	-38.236347	-26.746872	-2.048695
36802		0.921097	-0.320511	-0.203715	-0.085753	-37.979268	-25.483507	-1.738588
36803		0.924328	-0.318305	-0.194900	-0.079459	-37.695411	-24.260594	-1.434137
36804		0.927476	-0.315794	-0.186274	-0.073244	-37.374612	-23.065911	-1.134396
36805		0.930514	-0.313079	-0.177816	-0.067130	-37.029490	-21.897951	-0.839251
36806		0.933441	-0.310210	-0.169473	-0.061132	-36.665565	-20.751411	-0.550296
36807		0.936260	-0.307208	-0.161204	-0.055266	-36.284986	-19.622069	-0.270080
36808		0.938935	-0.304207	-0.153018	-0.049439	-35.906249	-18.507451	0.015569
36809		0.941474	-0.301173	-0.144962	-0.043666	-35.525268	-17.413063	0.305973
36810		0.943877	-0.298114	-0.137048	-0.037976	-35.142356	-16.341067	0.598408
36811		0.946135	-0.295076	-0.129235	-0.032504	-34.760468	-15.291528	0.876878
36812		0.948206	-0.292208	-0.121560	-0.027251	-34.398707	-14.267742	1.144715
36813		0.950081	-0.289576	-0.114004	-0.022230	-34.064392	-13.267717	1.400256
36814		0.951742	-0.287257	-0.106624	-0.017404	-33.767692	-12.295600	1.649773
36815		0.953228	-0.285179	-0.099328	-0.012756	-33.499063	-11.340497	1.889858
36816		0.954545	-0.283349	-0.092138	-0.008187	-33.260279	-10.401201	2.131711
36817		0.955722	-0.281711	-0.084978	-0.003658	-33.043836	-9.467735	2.375625
36818		0.956778	-0.280153	-0.078039	0.000931	-32.838416	-8.557971	2.637692
36819		0.957769	-0.278421	-0.071629	0.005487	-32.614506	-7.709625	2.915069
36820		0.958746	-0.276379	-0.065744	0.009888	-32.354773	-6.926586	3.193402
36821		0.959684	-0.274199	-0.060178	0.014129	-32.078534	-6.185958	3.466892
36822		0.960448	-0.272354	-0.055043	0.018237	-31.843254	-5.497262	3.744891
36823		0.960943	-0.271201	-0.050455	0.022197	-31.692149	-4.871966	4.030165
36824		0.961189	-0.270714	-0.046455	0.025908	-31.621825	-4.317109	4.311018
36825		0.961201	-0.270877	-0.043162	0.029260	-31.630763	-3.848793	4.577846
36826		0.960944	-0.271863	-0.040347	0.032396	-31.738956	-3.435656	4.838643
36827		0.960435	-0.273688	-0.037444	0.035456	-31.944972	-3.010384	5.090212
36828		0.959821	-0.275847	-0.034066	0.038616	-32.186534	-2.526943	5.337006
36829		0.959304	-0.277620	-0.030317	0.041770	-32.378045	-2.004342	5.568303
36830		0.958883	-0.278962	-0.026759	0.044804	-32.518233	-1.508216	5.790340
36831		0.958481	-0.280154	-0.023587	0.047665	-32.641868	-1.060539	6.004480
36832		0.958132	-0.281134	-0.020574	0.050239	-32.739989	-0.640473	6.191155
36833		0.957962	-0.281490	-0.017722	0.052519	-32.764060	-0.251310	6.349871
36834		0.957931	-0.281349	-0.015171	0.054603	-32.730181	0.095132	6.496867
36835		0.957967	-0.280983	-0.012803	0.056421	-32.670298	0.411187	6.620769
36836		0.958014	-0.280615	-0.010540	0.057904	-32.610647	0.704932	6.711442
36837		0.958043	-0.280324	-0.008524	0.059148	-32.561865	0.964287	6.784032
36838		0.958003	-0.280264	-0.006823	0.060300	-32.542573	1.187701	6.856624
36839		0.957966	-0.280221	-0.005270	0.061235	-32.526373	1.387915	6.910109
36840		0.957960	-0.280122	-0.003854	0.061884	-32.504629	1.563612	6.936480
36841		0.957976	-0.279992	-0.002746	0.062281	-32.481623	1.697118	6.945065
36842		0.958081	-0.279602	-0.001878	0.062447	-32.429378	1.794944	6.936462
36843		0.958257	-0.279030	-0.001286	0.062326	-32.357801	1.851935	6.905373
36844		0.958436	-0.278495	-0.001043	0.061971	-32.293157	1.863474	6.859482
36845		0.958596	-0.278074	-0.001144	0.061380	-32.244569	1.830509	6.798248
36846		0.958723	-0.277797	-0.001556	0.060628	-32.215229	1.759348	6.728815
36847		0.958808	-0.277700	-0.002295	0.059698	-32.209555	1.647754	6.649782
36848		0.958893	-0.277636	-0.003341	0.058574	-32.209681	1.496535	6.559057
36849		0.959001	-0.277535	-0.004650	0.057187	-32.207280	1.307789	6.447593
36850		0.959138	-0.277375	-0.006248	0.055481	-32.199524	1.076832	6.310361
36851		0.959242	-0.277340	-0.008151	0.053579	-32.208307	0.806832	6.161011
36852		0.959256	-0.277600	-0.010384	0.051555	-32.253708	0.498542	6.008684
36853		0.959128	-0.278320	-0.012889	0.049444	-32.355157	0.160308	5.855527
36854		0.958891	-0.279387	-0.015582	0.047195	-32.498549	-0.201193	5.694048
36855		0.958594	-0.280613	-0.018551	0.044823	-32.661879	-0.596483	5.529040
36856		0.958285	-0.281821	-0.021863	0.042284	-32.824470	-1.035359	5.358046
36857		0.957986	-0.282923	-0.025461	0.039619	-32.975470	-1.510782	5.183573
36858		0.957695	-0.283903	-0.029394	0.036826	-33.113002	-2.028141	5.007248
36859		0.957366	-0.284898	-0.033679	0.033897	-33.253592	-2.588977	4.828887
36860		0.956964	-0.286001	-0.038404	0.030784	-33.408903	-3.204120	4.646695
36861		0.956506	-0.287152	-0.043463	0.027385	-33.570644	-3.865674	4.446365
36862		0.955995	-0.288316	-0.048797	0.023774	-33.734170	-4.565041	4.233917
36863		0.955371	-0.289660	-0.054427	0.020007	-33.919754	-5.301988	4.017324
36864		0.954564	-0.291398	-0.060302	0.016073	-34.152891	-6.070752	3.795830
36865		0.953546	-0.293587	-0.066426	0.011974	-34.440607	-6.871824	3.571088
36866		0.952368	-0.296016	-0.072882	0.007675	-34.758142	-7.716817	3.341953
36867		0.951032	-0.298617	-0.079730	0.003125	-35.097780	-8.614545	3.105349
36868		0.949554	-0.301278	-0.087043	-0.001763	-35.445929	-9.576590	2.854198
36869		0.947951	-0.303870	-0.094881	-0.007053	-35.786922	-10.612837	2.582800
36870		0.946284	-0.306227	-0.102996	-0.012788	-36.097370	-11.698368	2.275367
36871		0.944497	-0.308509	-0.111367	-0.018569	-36.400174	-12.816518	1.976974
36872		0.942560	-0.310799	-0.119994	-0.024220	-36.707966	-13.960760	1.708325
36873		0.940472	-0.313094	-0.128825	-0.029809	-37.020286	-15.128150	1.460244
36874		0.938245	-0.315306	-0.137885	-0.035584	-37.323669	-16.330622	1.204855
36875		0.935848	-0.317424	-0.147286	-0.041688	-37.616097	-17.586146	0.930236
36876		0.933253	-0.319491	-0.156932	-0.048342	-37.897635	-18.893131	0.608353
36877		0.930483	-0.321434	-0.166728	-0.055529	-38.156749	-20.241219	0.234967
36878		0.927575	-0.323126	-0.176623	-0.063226	-38.375071	-21.624548	-0.194144
36879		0.924596	-0.324605	-0.186281	-0.071089	-38.556867	-22.993094	-0.654867
36880		0.921362	-0.326393	-0.195918	-0.078584	-38.783816	-24.350701	-1.063900
36881		0.917757	-0.328722	-0.205800	-0.085503	-39.098777	-25.719321	-1.376373
36882		0.913913	-0.331109	-0.215972	-0.092117	-39.437054	-27.113865	-1.632179
36883		0.909988	-0.332962	-0.226471	-0.098843	-39.712041	-28.554401	-1.897252
36884		0.906008	-0.334043	-0.237289	-0.106110	-39.877712	-30.057079	-2.234296
36885		0.901936	-0.334547	-0.248124	-0.114126	-39.942863	-31.597269	-2.681627
36886		0.897699	-0.334782	-0.258722	-0.122966	-39.935248	-33.150659	-3.255270
36887		0.893058	-0.335322	-0.269266	-0.132296	-39.944074	-34.726802	-3.886984
36888		0.888072	-0.336270	-0.279708	-0.141469	-40.004821	-36.295243	-4.494190
36889		0.883003	-0.337326	-0.289955	-0.149813	-40.099700	-37.816451	-5.007264
36890		0.878101	-0.337828	-0.300179	-0.157176	-40.146251	-39.299339	-5.428994
36891		0.873488	-0.337367	-0.310431	-0.163811	-40.075290	-40.756462	-5.812689
36892		0.869070	-0.335900	-0.320848	-0.170133	-39.862217	-42.219554	-6.214668
36893		0.864650	-0.333856	-0.331313	-0.176498	-39.547849	-43.692701	-6.670998
36894		0.860071	-0.331680	-0.341596	-0.183242	-39.171613	-45.165774	-7.219248
36895		0.855307	-0.329569	-0.351510	-0.190459	-38.747708	-46.621885	-7.875553
36896		0.850260	-0.327674	-0.361150	-0.198134	-38.297201	-48.072495	-8.628986
36897		0.844808	-0.326142	-0.370774	-0.206051	-37.860413	-49.540921	-9.428049
36898		0.838974	-0.324858	-0.380573	-0.213902	-37.441224	-51.037512	-10.227665
36899		0.832945	-0.323545	-0.390563	-0.221316	-37.016662	-52.546556	-10.992774
36900		0.826821	-0.321925	-0.400854	-0.228140	-36.551710	-54.072208	-11.718179
36901		0.820659	-0.320016	-0.411294	-0.234407	-36.041250	-55.597777	-12.417695
36902		0.814516	-0.317781	-0.421738	-0.240241	-35.461036	-57.109858	-13.126060
36903		0.808304	-0.315394	-0.432060	-0.245959	-34.806289	-58.607592	-13.893989
36904		0.801902	-0.313046	-0.442240	-0.251754	-34.087675	-60.098797	-14.745308
36905		0.795261	-0.310966	-0.452196	-0.257644	-33.338901	-61.577669	-15.669523
36906		0.788341	-0.309104	-0.461971	-0.263734	-32.529412	-63.052763	-16.701006
36907		0.781147	-0.307365	-0.471644	-0.269977	-31.630255	-64.529890	-17.854405
36908		0.773670	-0.305794	-0.481212	-0.276331	-30.638718	-66.007742	-19.133336
36909		0.766062	-0.304396	-0.490579	-0.282533	-29.573147	-67.462830	-20.497797
36910		0.758472	-0.303002	-0.499703	-0.288456	-28.395176	-68.879826	-21.960500
36911		0.750968	-0.301564	-0.508539	-0.294100	-27.074498	-70.249343	-23.547588
36912		0.743391	-0.300209	-0.517165	-0.299641	-25.591612	-71.590086	-25.304333
36913		0.735757	-0.299125	-0.525450	-0.305103	-23.970339	-72.888764	-27.226591
36914		0.728261	-0.298086	-0.533280	-0.310472	-22.117442	-74.118309	-29.387118
36915		0.720875	-0.297105	-0.540659	-0.315841	-19.978528	-75.278213	-31.849224
36916		0.713524	-0.296367	-0.547603	-0.321218	-17.573163	-76.373658	-34.609692
36917		0.706264	-0.295865	-0.554137	-0.326476	-14.901358	-77.400910	-37.655642
36918		0.699142	-0.295409	-0.560420	-0.331457	-11.892363	-78.366259	-41.025333
36919		0.692273	-0.294937	-0.566389	-0.336117	-8.513686	-79.252158	-44.741865
36920		0.685711	-0.294322	-0.572097	-0.340411	-4.696448	-80.052885	-48.857664
36921		0.679421	-0.293547	-0.577612	-0.344357	-0.384158	-80.770322	-53.428522
36922		0.673247	-0.292578	-0.583121	-0.348004	4.575291	-81.418684	-58.606436
36923		0.667182	-0.291485	-0.588540	-0.351461	10.218119	-81.979557	-64.444203
36924		0.661302	-0.290428	-0.593694	-0.354766	16.372848	-82.432183	-70.788266
36925		0.655651	-0.289496	-0.598514	-0.357902	22.826538	-82.773202	-77.431961
36926		0.650161	-0.288767	-0.603011	-0.360946	29.441408	-83.009899	-84.250800
36927		0.644880	-0.288303	-0.607126	-0.363881	35.941290	-83.150384	-90.972320
36928		0.639820	-0.288089	-0.610847	-0.366744	42.142344	-83.204082	-97.414201
36929		0.635041	-0.288184	-0.614076	-0.369572	47.785108	-83.185952	-103.325540
36930		0.630609	-0.288413	-0.616923	-0.372231	52.822207	-83.114310	-108.630044
36931		0.626506	-0.288720	-0.619534	-0.374578	57.330218	-83.015854	-113.385145
36932		0.622851	-0.289083	-0.621830	-0.376584	61.193399	-82.904885	-117.469953
36933		0.619751	-0.289490	-0.623786	-0.378147	64.374861	-82.804129	-120.836294
36934		0.617229	-0.289773	-0.625481	-0.379255	66.972431	-82.713739	-123.565152
36935		0.615206	-0.290010	-0.626861	-0.380080	69.026241	-82.635837	-125.719558
36936		0.613661	-0.290290	-0.627903	-0.380645	70.570799	-82.583093	-127.343903
36937		0.612418	-0.290685	-0.628758	-0.380933	71.844166	-82.563278	-128.681050
36938		0.611389	-0.291091	-0.629651	-0.380801	73.075472	-82.576715	-129.937183
36939		0.610588	-0.291423	-0.630609	-0.380247	74.282017	-82.617031	-131.121798
36940		0.610031	-0.291787	-0.631418	-0.379519	75.298020	-82.678033	-132.102059
36941		0.609712	-0.292264	-0.631911	-0.378841	75.989478	-82.753048	-132.772516
36942		0.609632	-0.292781	-0.632230	-0.378038	76.468937	-82.848510	-133.222309
36943		0.609721	-0.293377	-0.632403	-0.377143	76.790072	-82.963728	-133.511928
36944		0.610020	-0.294187	-0.632312	-0.376180	76.858041	-83.110906	-133.560994
36945		0.610536	-0.295127	-0.631996	-0.375136	76.670931	-83.283983	-133.358688
36946		0.611201	-0.296193	-0.631479	-0.374082	76.251071	-83.474896	-132.934079
36947		0.611920	-0.297398	-0.630764	-0.373156	75.617215	-83.671184	-132.319940
36948		0.612595	-0.298685	-0.629992	-0.372324	74.922377	-83.866014	-131.661293
36949		0.613173	-0.300033	-0.629278	-0.371495	74.309556	-84.061711	-131.090836
36950		0.613637	-0.301395	-0.628740	-0.370536	73.915445	-84.263080	-130.728358
36951		0.614095	-0.302664	-0.628297	-0.369493	73.583756	-84.461901	-130.412141
36952		0.614690	-0.303796	-0.627843	-0.368344	73.107352	-84.660321	-129.929096
36953		0.615413	-0.304776	-0.627328	-0.367203	72.403998	-84.848636	-129.206247
36954		0.616231	-0.305636	-0.626719	-0.366155	71.441286	-85.021553	-128.222009
36955		0.617072	-0.306496	-0.625988	-0.365269	70.238602	-85.181815	-127.013353
36956		0.617859	-0.307430	-0.625135	-0.364615	68.852557	-85.327691	-125.649736
36957		0.618497	-0.308371	-0.624321	-0.364133	67.544501	-85.455959	-124.381207
36958		0.619039	-0.309266	-0.623549	-0.363776	66.288144	-85.566925	-123.172069
36959		0.619611	-0.310024	-0.622788	-0.363459	64.942162	-85.661584	-121.864860
36960		0.620233	-0.310500	-0.622150	-0.363085	63.623162	-85.735272	-120.553763
36961		0.620957	-0.310687	-0.621600	-0.362628	62.257172	-85.790044	-119.161831
36962		0.621740	-0.310704	-0.621105	-0.362120	60.863453	-85.832587	-117.721948
36963		0.622494	-0.310673	-0.620589	-0.361737	59.453909	-85.858531	-116.273701
36964		0.623141	-0.310612	-0.620043	-0.361610	58.122778	-85.859149	-114.925295
36965		0.623659	-0.310530	-0.619477	-0.361759	56.928620	-85.834244	-113.737712
36966		0.624090	-0.310331	-0.619014	-0.361978	55.980854	-85.794065	-112.792630
36967		0.624498	-0.310007	-0.618654	-0.362166	55.206935	-85.746215	-112.007130
36968		0.624942	-0.309524	-0.618423	-0.362209	54.565929	-85.697458	-111.326591
36969		0.625476	-0.308907	-0.618219	-0.362163	53.890304	-85.643845	-110.590921
36970		0.626149	-0.308178	-0.617970	-0.362046	53.054531	-85.584053	-109.678436
36971		0.626886	-0.307356	-0.617711	-0.361909	52.184382	-85.516413	-108.721460
36972		0.627628	-0.306555	-0.617429	-0.361785	51.311683	-85.447902	-107.765017
36973		0.628403	-0.305772	-0.617064	-0.361725	50.355040	-85.372840	-106.732402
36974		0.629192	-0.305032	-0.616632	-0.361714	49.350674	-85.294382	-105.660721
36975		0.630031	-0.304222	-0.616199	-0.361676	48.346565	-85.210156	-104.580398
36976		0.630905	-0.303225	-0.615913	-0.361475	47.503961	-85.124867	-103.629617
36977		0.631874	-0.302127	-0.615728	-0.361017	46.675418	-85.050584	-102.659847
36978		0.633011	-0.300924	-0.615610	-0.360231	45.746621	-84.990296	-101.549763
36979		0.634295	-0.299563	-0.615546	-0.359214	44.758886	-84.931760	-100.345315
36980		0.635686	-0.298091	-0.615478	-0.358094	43.712667	-84.868040	-99.063084
36981		0.637106	-0.296647	-0.615302	-0.357071	42.594181	-84.793172	-97.720505
36982		0.638552	-0.295376	-0.614940	-0.356164	41.307838	-84.714085	-96.236816
36983		0.639997	-0.294203	-0.614529	-0.355249	39.984805	-84.638325	-94.724825
36984		0.641403	-0.293085	-0.614162	-0.354273	38.726284	-84.570821	-93.276772
36985		0.642791	-0.292027	-0.613807	-0.353244	37.482760	-84.509736	-91.844318
36986		0.644201	-0.290963	-0.613480	-0.352120	36.245793	-84.452256	-90.409268
36987		0.645616	-0.289871	-0.613218	-0.350883	35.055036	-84.400295	-89.007850
36988		0.647075	-0.288740	-0.612981	-0.349540	33.853562	-84.349484	-87.582511
36989		0.648550	-0.287624	-0.612731	-0.348161	32.636337	-84.298129	-86.139756
36990		0.650055	-0.286559	-0.612426	-0.346766	31.353933	-84.244589	-84.635304
36991		0.651533	-0.285534	-0.612088	-0.345431	30.099205	-84.186205	-83.167932
36992		0.652928	-0.284605	-0.611730	-0.344195	28.904547	-84.127348	-81.778568
36993		0.654210	-0.283790	-0.611373	-0.343068	27.797057	-84.071268	-80.496510
36994		0.655403	-0.282985	-0.611064	-0.342005	26.817952	-84.015787	-79.349822
36995		0.656537	-0.282108	-0.610860	-0.340917	25.985488	-83.963496	-78.340927
36996		0.657593	-0.281250	-0.610753	-0.339781	25.242418	-83.922778	-77.418714
36997		0.658657	-0.280341	-0.610654	-0.338646	24.539162	-83.877571	-76.532098
36998		0.659745	-0.279332	-0.610603	-0.337453	23.887108	-83.829828	-75.682505
36999		0.660847	-0.278299	-0.610563	-0.336219	23.240848	-83.781905	-74.833175
37000		0.661917	-0.277349	-0.610470	-0.335066	22.585114	-83.731928	-73.989180
37001		0.662900	-0.276531	-0.610339	-0.334036	21.952369	-83.684117	-73.191325
37002		0.663797	-0.275867	-0.610136	-0.333174	21.330126	-83.635336	-72.433081
37003		0.664562	-0.275398	-0.609868	-0.332527	20.745744	-83.588093	-71.749637
37004		0.665238	-0.275118	-0.609533	-0.332021	20.142025	-83.544235	-71.076418
37005		0.665855	-0.274935	-0.609172	-0.331597	19.548753	-83.502322	-70.429715
37006		0.666429	-0.274855	-0.608809	-0.331179	18.929203	-83.467543	-69.766341
37007		0.667019	-0.274821	-0.608403	-0.330764	18.264225	-83.430849	-69.062063
37008		0.667556	-0.274893	-0.607988	-0.330385	17.585374	-83.399786	-68.356408
37009		0.668018	-0.275083	-0.607539	-0.330117	16.918830	-83.370583	-67.683668
37010		0.668352	-0.275421	-0.607071	-0.330021	16.306600	-83.345741	-67.093914
37011		0.668521	-0.276025	-0.606524	-0.330180	15.709473	-83.326119	-66.565818
37012		0.668518	-0.276889	-0.605895	-0.330616	15.140554	-83.310405	-66.114276
37013		0.668399	-0.277916	-0.605196	-0.331276	14.610216	-83.293811	-65.736041
37014		0.668179	-0.279006	-0.604502	-0.332070	14.157467	-83.279810	-65.453308
37015		0.667887	-0.280152	-0.603837	-0.332902	13.736659	-83.272756	-65.210868
37016		0.667555	-0.281284	-0.603206	-0.333755	13.367829	-83.268287	-65.021112
37017		0.667257	-0.282282	-0.602664	-0.334487	13.041165	-83.266491	-64.850581
37018		0.667042	-0.283083	-0.602202	-0.335071	12.754811	-83.261970	-64.689303
37019		0.666915	-0.283654	-0.601802	-0.335558	12.544503	-83.248940	-64.575012
37020		0.666925	-0.283943	-0.601451	-0.335923	12.400689	-83.222172	-64.490958
37021		0.667030	-0.284022	-0.601137	-0.336209	12.317234	-83.185081	-64.441553
37022		0.667236	-0.283958	-0.600812	-0.336436	12.240137	-83.136605	-64.380614
37023		0.667493	-0.283805	-0.600489	-0.336631	12.179449	-83.082170	-64.325356
37024		0.667798	-0.283599	-0.600133	-0.336834	12.119945	-83.019488	-64.267445
37025		0.668121	-0.283367	-0.599755	-0.337063	12.072502	-82.951609	-64.221738
37026		0.668409	-0.283133	-0.599409	-0.337303	12.058748	-82.887311	-64.210456
37027		0.668660	-0.282938	-0.599094	-0.337531	12.045515	-82.830041	-64.201941
37028		0.668914	-0.282766	-0.598736	-0.337804	12.021710	-82.768590	-64.189270
37029		0.669154	-0.282675	-0.598338	-0.338112	11.961099	-82.707880	-64.150069
37030		0.669374	-0.282682	-0.597862	-0.338512	11.865847	-82.643681	-64.093701
37031		0.669479	-0.282849	-0.597358	-0.339054	11.782952	-82.585929	-64.076709
37032		0.669523	-0.283133	-0.596788	-0.339733	11.697912	-82.526949	-64.080695
37033		0.669550	-0.283522	-0.596143	-0.340488	11.568600	-82.465596	-64.056920
37034		0.669610	-0.283939	-0.595449	-0.341236	11.391759	-82.400755	-63.987633
37035		0.669695	-0.284324	-0.594803	-0.341874	11.195440	-82.341176	-63.886013
37036		0.669815	-0.284624	-0.594210	-0.342420	11.011598	-82.283028	-63.780767
37037		0.670005	-0.284890	-0.593576	-0.342926	10.790418	-82.218041	-63.631793
37038		0.670242	-0.285139	-0.592901	-0.343424	10.546496	-82.146772	-63.457991
37039		0.670513	-0.285353	-0.592215	-0.343901	10.299085	-82.071763	-63.275947
37040		0.670795	-0.285588	-0.591502	-0.344381	10.033366	-81.994997	-63.077812
37041		0.671019	-0.285897	-0.590826	-0.344850	9.762556	-81.928524	-62.879903
37042		0.671189	-0.286202	-0.590214	-0.345312	9.533957	-81.869765	-62.723075
37043		0.671292	-0.286497	-0.589699	-0.345748	9.357875	-81.822358	-62.615067
37044		0.671435	-0.286743	-0.589218	-0.346087	9.165709	-81.776849	-62.477734
37045		0.671581	-0.286911	-0.588856	-0.346281	8.993276	-81.742158	-62.339492
37046		0.671760	-0.286993	-0.588563	-0.346361	8.830093	-81.711070	-62.192179
37047		0.671981	-0.287016	-0.588294	-0.346372	8.663629	-81.679190	-62.029936
37048		0.672195	-0.287046	-0.588056	-0.346335	8.487373	-81.652328	-61.854048
37049		0.672394	-0.287099	-0.587843	-0.346267	8.300888	-81.630700	-61.666991
37050		0.672585	-0.287214	-0.587632	-0.346159	8.071348	-81.614187	-61.438719
37051		0.672788	-0.287419	-0.587364	-0.346051	7.775885	-81.597108	-61.152579
