// General information: 
//  MT Manager version: 2022.2.0 
//  XDA version: 2022.2.0 build 7381 rev 124627 built on 2023-07-19
// Device information: 
//  DeviceId: 10B41515
//  ProductCode: MTW2-3A7G6
//  Firmware Version: 4.14.0
//  Hardware Version: 3.0.0
// Device settings: 
//  Filter Profile: human(46.1)
//  Option Flags: Orientation Smoother Disabled, Position/Velocity Smoother Disabled, Continuous Zero Rotation Update Disabled, AHS Disabled, ICC Disabled
// Coordinate system: ENU
PacketCounter	SampleTimeFine	Quat_q0	Quat_q1	Quat_q2	Quat_q3	Roll	Pitch	Yaw
35519		-0.018265	0.659252	0.010913	-0.751621	-17.231531	82.144783	162.171322
35520		-0.018302	0.659108	0.010974	-0.751745	-17.240242	82.121674	162.164540
35521		-0.018357	0.658932	0.011015	-0.751898	-17.234985	82.093768	162.168696
35522		-0.018373	0.659044	0.011031	-0.751799	-17.290358	82.109318	162.113326
35523		-0.018346	0.659243	0.011075	-0.751625	-17.369847	82.137800	162.039661
35524		-0.018356	0.659351	0.011022	-0.751531	-17.379409	82.154502	162.024973
35525		-0.018335	0.659479	0.010973	-0.751419	-17.381620	82.174798	162.020482
35526		-0.018303	0.659633	0.010909	-0.751286	-17.378632	82.199425	162.020861
35527		-0.018300	0.659690	0.010910	-0.751236	-17.396265	82.207666	162.003532
35528		-0.018331	0.659680	0.010870	-0.751244	-17.384704	82.206548	162.009349
35529		-0.018400	0.659665	0.010834	-0.751256	-17.394773	82.203672	161.990753
35530		-0.018470	0.659600	0.010823	-0.751312	-17.403072	82.192835	161.975901
35531		-0.018562	0.659542	0.010819	-0.751361	-17.429871	82.182338	161.941256
35532		-0.018640	0.659496	0.010799	-0.751400	-17.442785	82.174371	161.920398
35533		-0.018695	0.659416	0.010844	-0.751468	-17.472479	82.160399	161.889908
35534		-0.018742	0.659324	0.010884	-0.751547	-17.490469	82.145010	161.871305
35535		-0.018738	0.659250	0.010951	-0.751610	-17.503801	82.132873	161.863686
35536		-0.018709	0.659268	0.010971	-0.751595	-17.506774	82.135704	161.864681
35537		-0.018600	0.659312	0.011011	-0.751559	-17.488134	82.143520	161.895439
35538		-0.018471	0.659357	0.011042	-0.751522	-17.454555	82.152376	161.942097
35539		-0.018255	0.659398	0.011176	-0.751489	-17.435196	82.160139	161.989854
35540		-0.018083	0.659477	0.011265	-0.751423	-17.425532	82.173380	162.020716
35541		-0.017889	0.659592	0.011369	-0.751325	-17.425061	82.192035	162.045458
35542		-0.017787	0.659694	0.011439	-0.751237	-17.448777	82.207564	162.035646
35543		-0.017669	0.659771	0.011542	-0.751171	-17.474659	82.219005	162.027771
35544		-0.017584	0.659893	0.011626	-0.751064	-17.522947	82.236753	161.993142
35545		-0.017529	0.660066	0.011695	-0.750912	-17.595787	82.261495	161.930425
35546		-0.017496	0.660240	0.011745	-0.750759	-17.668594	82.286368	161.864384
35547		-0.017396	0.660421	0.011862	-0.750600	-17.750608	82.312236	161.799938
35548		-0.017385	0.660642	0.011879	-0.750406	-17.832720	82.344164	161.720140
35549		-0.017358	0.660870	0.011896	-0.750205	-17.909580	82.377472	161.646832
35550		-0.017357	0.661053	0.011889	-0.750044	-17.970980	82.404166	161.584988
35551		-0.017334	0.661206	0.011904	-0.749909	-18.022609	82.426650	161.536366
35552		-0.017318	0.661263	0.011937	-0.749859	-18.055159	82.434410	161.507931
35553		-0.017288	0.661279	0.011990	-0.749845	-18.077831	82.436225	161.491964
35554		-0.017250	0.661276	0.012030	-0.749848	-18.081202	82.435671	161.494888
35555		-0.017183	0.661294	0.012055	-0.749833	-18.066508	82.439319	161.517039
35556		-0.017134	0.661378	0.012022	-0.749761	-18.049424	82.453368	161.535468
35557		-0.017064	0.661536	0.011973	-0.749623	-18.037404	82.479272	161.549203
35558		-0.017024	0.661712	0.011894	-0.749471	-18.029470	82.507612	161.553964
35559		-0.016984	0.661881	0.011794	-0.749324	-18.005664	82.535463	161.572878
35560		-0.016988	0.662036	0.011712	-0.749188	-18.012945	82.559944	161.558615
35561		-0.017015	0.662186	0.011646	-0.749056	-18.040743	82.582670	161.523310
35562		-0.017071	0.662305	0.011579	-0.748950	-18.074088	82.600331	161.479899
35563		-0.017136	0.662377	0.011542	-0.748886	-18.113852	82.610068	161.431939
35564		-0.017188	0.662433	0.011498	-0.748836	-18.135141	82.618039	161.402883
35565		-0.017226	0.662499	0.011481	-0.748777	-18.170798	82.627124	161.362738
35566		-0.017229	0.662556	0.011478	-0.748727	-18.191623	82.635346	161.341375
35567		-0.017241	0.662579	0.011479	-0.748705	-18.207971	82.638510	161.324238
35568		-0.017228	0.662581	0.011490	-0.748704	-18.207909	82.638731	161.326123
35569		-0.017194	0.662613	0.011538	-0.748676	-18.231575	82.643029	161.309157
35570		-0.017199	0.662625	0.011547	-0.748665	-18.245286	82.644431	161.295820
35571		-0.017237	0.662626	0.011488	-0.748664	-18.228381	82.645137	161.304827
35572		-0.017250	0.662633	0.011457	-0.748658	-18.219499	82.646657	161.310138
35573		-0.017253	0.662632	0.011417	-0.748660	-18.194899	82.647309	161.331255
35574		-0.017282	0.662632	0.011330	-0.748660	-18.155072	82.648772	161.361618
35575		-0.017319	0.662677	0.011255	-0.748620	-18.144249	82.656310	161.363329
35576		-0.017365	0.662760	0.011163	-0.748547	-18.142446	82.669566	161.354006
35577		-0.017420	0.662880	0.011044	-0.748441	-18.141973	82.688570	161.340299
35578		-0.017460	0.663006	0.010921	-0.748331	-18.132565	82.708865	161.336565
35579		-0.017444	0.663132	0.010850	-0.748220	-18.125187	82.729420	161.339436
35580		-0.017494	0.663266	0.010742	-0.748102	-18.134712	82.750310	161.317129
35581		-0.017532	0.663377	0.010584	-0.748005	-18.096562	82.769402	161.339338
35582		-0.017543	0.663439	0.010494	-0.747951	-18.066752	82.780284	161.360925
35583		-0.017574	0.663516	0.010369	-0.747883	-18.032350	82.793948	161.382667
35584		-0.017570	0.663587	0.010325	-0.747821	-18.028380	82.805411	161.383381
35585		-0.017576	0.663651	0.010301	-0.747765	-18.041156	82.815080	161.368233
35586		-0.017559	0.663696	0.010332	-0.747725	-18.068491	82.821303	161.344726
35587		-0.017528	0.663713	0.010383	-0.747710	-18.090591	82.823292	161.329336
35588		-0.017465	0.663720	0.010469	-0.747704	-18.113409	82.823709	161.318624
35589		-0.017356	0.663743	0.010540	-0.747685	-18.105980	82.827819	161.340621
35590		-0.017238	0.663761	0.010614	-0.747671	-18.093768	82.831500	161.368390
35591		-0.017128	0.663797	0.010671	-0.747641	-18.080851	82.837945	161.394923
35592		-0.016988	0.663823	0.010745	-0.747620	-18.058863	82.843174	161.434300
35593		-0.016895	0.663860	0.010771	-0.747589	-18.035953	82.850186	161.466865
35594		-0.016781	0.663949	0.010785	-0.747511	-18.013550	82.865567	161.499703
35595		-0.016602	0.664027	0.010840	-0.747446	-17.975418	82.879774	161.556780
35596		-0.016461	0.664119	0.010847	-0.747367	-17.933259	82.896392	161.611032
35597		-0.016320	0.664229	0.010841	-0.747272	-17.889068	82.915889	161.666135
35598		-0.016179	0.664301	0.010830	-0.747211	-17.826718	82.929974	161.739091
35599		-0.016008	0.664339	0.010821	-0.747182	-17.734484	82.939622	161.844417
35600		-0.015846	0.664388	0.010779	-0.747142	-17.629196	82.951683	161.959457
35601		-0.015729	0.664417	0.010729	-0.747120	-17.537109	82.959711	162.056934
35602		-0.015605	0.664394	0.010710	-0.747143	-17.442630	82.959722	162.159934
35603		-0.015528	0.664393	0.010684	-0.747145	-17.379227	82.961950	162.227534
35604		-0.015436	0.664376	0.010692	-0.747163	-17.323414	82.961281	162.291456
35605		-0.015359	0.664314	0.010728	-0.747219	-17.278528	82.953142	162.345465
35606		-0.015312	0.664165	0.010784	-0.747352	-17.233050	82.931145	162.399417
35607		-0.015284	0.664058	0.010836	-0.747446	-17.211895	82.914960	162.426978
35608		-0.015279	0.663988	0.010845	-0.747509	-17.188567	82.904588	162.451448
35609		-0.015276	0.663927	0.010871	-0.747562	-17.182012	82.895157	162.460369
35610		-0.015285	0.663888	0.010869	-0.747597	-17.171307	82.889257	162.470220
35611		-0.015264	0.663876	0.010913	-0.747608	-17.183789	82.886954	162.462958
35612		-0.015242	0.663891	0.010915	-0.747595	-17.178138	82.889598	162.470636
35613		-0.015169	0.663924	0.010968	-0.747566	-17.182658	82.894855	162.476338
35614		-0.015123	0.663964	0.011000	-0.747531	-17.192059	82.901064	162.473213
35615		-0.015073	0.664009	0.010984	-0.747491	-17.168963	82.909193	162.499088
35616		-0.015004	0.664041	0.010949	-0.747466	-17.116510	82.916105	162.554286
35617		-0.014991	0.664095	0.010868	-0.747419	-17.074025	82.926192	162.591312
35618		-0.014958	0.664155	0.010824	-0.747367	-17.047398	82.936814	162.616991
35619		-0.014939	0.664228	0.010813	-0.747302	-17.055292	82.948177	162.609680
35620		-0.014960	0.664322	0.010767	-0.747219	-17.071224	82.962460	162.588445
35621		-0.014940	0.664437	0.010728	-0.747118	-17.075400	82.980770	162.582668
35622		-0.014939	0.664546	0.010674	-0.747022	-17.079017	82.997853	162.574797
35623		-0.014894	0.664642	0.010640	-0.746938	-17.065239	83.013781	162.589416
35624		-0.014861	0.664743	0.010571	-0.746849	-17.035543	83.030977	162.616193
35625		-0.014814	0.664876	0.010507	-0.746733	-17.013772	83.052952	162.636608
35626		-0.014767	0.665006	0.010418	-0.746619	-16.972900	83.075054	162.674079
35627		-0.014722	0.665114	0.010346	-0.746525	-16.936559	83.093593	162.708203
35628		-0.014676	0.665209	0.010284	-0.746443	-16.901629	83.109879	162.741845
35629		-0.014636	0.665326	0.010271	-0.746339	-16.912387	83.128311	162.733298
35630		-0.014575	0.665450	0.010274	-0.746229	-16.924292	83.147792	162.726556
35631		-0.014479	0.665602	0.010342	-0.746094	-16.970283	83.170738	162.693860
35632		-0.014414	0.665759	0.010361	-0.745956	-17.003197	83.194749	162.667837
35633		-0.014342	0.665933	0.010373	-0.745801	-17.034136	83.221698	162.643694
35634		-0.014262	0.666111	0.010382	-0.745644	-17.058712	83.249335	162.626308
35635		-0.014206	0.666294	0.010362	-0.745482	-17.080627	83.277933	162.607367
35636		-0.014115	0.666457	0.010354	-0.745338	-17.081525	83.304160	162.613157
35637		-0.014060	0.666600	0.010341	-0.745211	-17.093187	83.326729	162.604963
35638		-0.014033	0.666713	0.010332	-0.745111	-17.114133	83.344045	162.585428
35639		-0.014013	0.666831	0.010299	-0.745006	-17.124385	83.362576	162.574224
35640		-0.014002	0.666930	0.010293	-0.744918	-17.152052	83.377534	162.546878
35641		-0.014008	0.667006	0.010273	-0.744850	-17.172343	83.388968	162.524501
35642		-0.014008	0.667071	0.010256	-0.744792	-17.185328	83.398954	162.510149
35643		-0.014001	0.667123	0.010233	-0.744746	-17.185368	83.407341	162.508769
35644		-0.014032	0.667184	0.010166	-0.744691	-17.181879	83.417154	162.504334
35645		-0.014037	0.667238	0.010118	-0.744644	-17.171740	83.425982	162.510211
35646		-0.014070	0.667297	0.010029	-0.744591	-17.152358	83.436055	162.519681
35647		-0.014116	0.667375	0.009914	-0.744522	-17.130624	83.449161	162.528360
35648		-0.014167	0.667431	0.009808	-0.744472	-17.109259	83.458667	162.537014
35649		-0.014229	0.667467	0.009720	-0.744440	-17.099799	83.464499	162.534227
35650		-0.014277	0.667500	0.009640	-0.744410	-17.085575	83.470172	162.538095
35651		-0.014321	0.667524	0.009558	-0.744389	-17.065220	83.474615	162.548202
35652		-0.014360	0.667542	0.009500	-0.744373	-17.055160	83.477667	162.550361
35653		-0.014344	0.667570	0.009415	-0.744349	-16.994267	83.484136	162.605731
35654		-0.014372	0.667574	0.009340	-0.744346	-16.959485	83.485778	162.632115
35655		-0.014393	0.667586	0.009235	-0.744337	-16.901662	83.489447	162.679669
35656		-0.014416	0.667591	0.009154	-0.744333	-16.860068	83.491526	162.712826
35657		-0.014417	0.667600	0.009114	-0.744325	-16.835150	83.493750	162.734397
35658		-0.014452	0.667615	0.009037	-0.744312	-16.808333	83.496983	162.752210
35659		-0.014465	0.667630	0.008993	-0.744299	-16.790217	83.499862	162.765738
35660		-0.014502	0.667629	0.008940	-0.744300	-16.775065	83.500099	162.773495
35661		-0.014508	0.667637	0.008897	-0.744293	-16.751223	83.502133	162.793440
35662		-0.014514	0.667642	0.008821	-0.744289	-16.701507	83.504510	162.836454
35663		-0.014540	0.667626	0.008738	-0.744304	-16.651739	83.503429	162.877380
35664		-0.014536	0.667602	0.008690	-0.744325	-16.605136	83.501135	162.920380
35665		-0.014531	0.667590	0.008630	-0.744337	-16.553585	83.500818	162.967526
35666		-0.014527	0.667567	0.008582	-0.744359	-16.507035	83.498516	163.010473
35667		-0.014512	0.667530	0.008577	-0.744392	-16.479054	83.493492	163.039193
35668		-0.014488	0.667467	0.008553	-0.744449	-16.421118	83.485354	163.097196
35669		-0.014506	0.667402	0.008489	-0.744508	-16.361848	83.476757	163.149878
35670		-0.014492	0.667364	0.008486	-0.744542	-16.335995	83.471581	163.176576
35671		-0.014458	0.667283	0.008488	-0.744616	-16.283638	83.460254	163.231827
35672		-0.014440	0.667175	0.008482	-0.744713	-16.226737	83.444820	163.289739
35673		-0.014427	0.667082	0.008480	-0.744796	-16.182034	83.431521	163.335309
35674		-0.014408	0.666963	0.008471	-0.744903	-16.118442	83.414533	163.399631
35675		-0.014378	0.666832	0.008458	-0.745021	-16.041320	83.396139	163.478170
35676		-0.014352	0.666725	0.008419	-0.745118	-15.956323	83.381770	163.562110
35677		-0.014303	0.666625	0.008375	-0.745209	-15.856735	83.368883	163.662083
35678		-0.014270	0.666527	0.008293	-0.745299	-15.740728	83.356836	163.774181
35679		-0.014244	0.666447	0.008260	-0.745371	-15.671827	83.346276	163.842483
35680		-0.014255	0.666388	0.008207	-0.745424	-15.619648	83.338462	163.889413
35681		-0.014311	0.666345	0.008127	-0.745462	-15.582158	83.332744	163.915903
35682		-0.014328	0.666307	0.008086	-0.745496	-15.550784	83.327597	163.942627
35683		-0.014343	0.666283	0.008069	-0.745518	-15.539195	83.324052	163.951628
35684		-0.014364	0.666232	0.008031	-0.745563	-15.507621	83.316926	163.978310
35685		-0.014370	0.666206	0.007990	-0.745587	-15.472486	83.313768	164.009647
35686		-0.014383	0.666145	0.007914	-0.745641	-15.405110	83.306150	164.069782
35687		-0.014369	0.666096	0.007827	-0.745687	-15.316620	83.300974	164.152354
35688		-0.014374	0.666036	0.007717	-0.745741	-15.220565	83.294391	164.239100
35689		-0.014397	0.665968	0.007583	-0.745802	-15.117122	83.286627	164.329805
35690		-0.014417	0.665888	0.007484	-0.745875	-15.031246	83.276412	164.406062
35691		-0.014432	0.665803	0.007403	-0.745951	-14.953997	83.265140	164.475414
35692		-0.014500	0.665705	0.007318	-0.746038	-14.903434	83.251043	164.513647
35693		-0.014550	0.665641	0.007256	-0.746095	-14.868901	83.241861	164.538995
35694		-0.014616	0.665586	0.007230	-0.746143	-14.873183	83.232818	164.527353
35695		-0.014675	0.665550	0.007202	-0.746174	-14.878383	83.226949	164.515029
35696		-0.014747	0.665532	0.007196	-0.746189	-14.912774	83.222942	164.474304
35697		-0.014802	0.665542	0.007240	-0.746178	-14.981214	83.222565	164.404971
35698		-0.014848	0.665571	0.007304	-0.746151	-15.065253	83.224575	164.322334
35699		-0.014863	0.665606	0.007444	-0.746118	-15.184752	83.226471	164.213021
35700		-0.014886	0.665632	0.007589	-0.746093	-15.310289	83.226823	164.097379
35701		-0.014852	0.665671	0.007776	-0.746057	-15.434130	83.229395	163.991520
35702		-0.014850	0.665693	0.007951	-0.746036	-15.563516	83.228908	163.876501
35703		-0.014795	0.665702	0.008175	-0.746026	-15.689906	83.226652	163.772781
35704		-0.014781	0.665713	0.008346	-0.746014	-15.805173	83.224920	163.672447
35705		-0.014765	0.665736	0.008529	-0.745992	-15.931791	83.224631	163.561989
35706		-0.014776	0.665770	0.008698	-0.745960	-16.069188	83.225707	163.437471
35707		-0.014772	0.665815	0.008865	-0.745918	-16.200434	83.228727	163.320139
35708		-0.014807	0.665879	0.009024	-0.745858	-16.357872	83.233855	163.172738
35709		-0.014817	0.665960	0.009206	-0.745783	-16.521762	83.241600	163.022756
35710		-0.014844	0.666040	0.009347	-0.745710	-16.667852	83.249558	162.885985
35711		-0.014829	0.666131	0.009532	-0.745626	-16.822397	83.259107	162.747606
35712		-0.014823	0.666245	0.009693	-0.745523	-16.975513	83.272192	162.608123
35713		-0.014782	0.666374	0.009884	-0.745406	-17.134806	83.287630	162.467662
35714		-0.014752	0.666475	0.010051	-0.745313	-17.273493	83.299349	162.344946
35715		-0.014725	0.666565	0.010212	-0.745231	-17.405142	83.309404	162.228582
35716		-0.014706	0.666646	0.010361	-0.745157	-17.531071	83.318143	162.116285
35717		-0.014656	0.666726	0.010537	-0.745084	-17.656508	83.326941	162.009142
35718		-0.014631	0.666827	0.010648	-0.744993	-17.759592	83.339618	161.917124
35719		-0.014605	0.666925	0.010774	-0.744904	-17.872575	83.351562	161.816444
35720		-0.014614	0.666989	0.010852	-0.744846	-17.959562	83.358761	161.735143
35721		-0.014627	0.667053	0.010917	-0.744786	-18.040508	83.366363	161.658339
35722		-0.014635	0.667132	0.010950	-0.744715	-18.101267	83.376855	161.599673
35723		-0.014646	0.667202	0.010988	-0.744652	-18.165015	83.385885	161.538040
35724		-0.014657	0.667260	0.011031	-0.744599	-18.227213	83.393104	161.478473
35725		-0.014638	0.667301	0.011081	-0.744562	-18.267501	83.398267	161.443863
35726		-0.014660	0.667344	0.011109	-0.744522	-18.319626	83.403338	161.392175
35727		-0.014665	0.667375	0.011127	-0.744494	-18.348700	83.407358	161.364109
35728		-0.014685	0.667383	0.011153	-0.744486	-18.383806	83.407364	161.329519
35729		-0.014710	0.667387	0.011175	-0.744482	-18.415843	83.406787	161.297257
35730		-0.014729	0.667378	0.011196	-0.744489	-18.439376	83.404527	161.273815
35731		-0.014699	0.667374	0.011248	-0.744492	-18.455954	83.403399	161.264022
35732		-0.014730	0.667350	0.011254	-0.744513	-18.469122	83.399006	161.248753
35733		-0.014740	0.667332	0.011269	-0.744529	-18.478520	83.395663	161.239802
35734		-0.014724	0.667265	0.011267	-0.744590	-18.438135	83.386312	161.281278
35735		-0.014710	0.667196	0.011263	-0.744652	-18.397752	83.376761	161.322412
35736		-0.014715	0.667140	0.011227	-0.744702	-18.351390	83.369411	161.365501
35737		-0.014720	0.667090	0.011188	-0.744748	-18.306204	83.362879	161.407080
35738		-0.014755	0.667023	0.011111	-0.744808	-18.245708	83.354109	161.458525
35739		-0.014807	0.666968	0.011041	-0.744858	-18.205454	83.346494	161.488895
35740		-0.014878	0.666890	0.010919	-0.744928	-18.131547	83.336364	161.547085
35741		-0.014986	0.666802	0.010806	-0.745006	-18.083122	83.323784	161.577632
35742		-0.015070	0.666731	0.010676	-0.745070	-18.014564	83.314526	161.628840
35743		-0.015134	0.666649	0.010558	-0.745143	-17.938232	83.303946	161.690376
35744		-0.015192	0.666537	0.010434	-0.745244	-17.841531	83.289103	161.772282
35745		-0.015221	0.666410	0.010334	-0.745359	-17.737651	83.272280	161.865669
35746		-0.015254	0.666273	0.010221	-0.745482	-17.624686	83.254097	161.966816
35747		-0.015305	0.666149	0.010109	-0.745593	-17.528367	83.237513	162.049834
35748		-0.015360	0.666039	0.010030	-0.745691	-17.464217	83.222038	162.103162
35749		-0.015384	0.665932	0.009986	-0.745787	-17.406233	83.206820	162.155672
35750		-0.015447	0.665821	0.009942	-0.745885	-17.370816	83.190149	162.182332
35751		-0.015483	0.665698	0.009945	-0.745994	-17.346660	83.171235	162.203837
35752		-0.015531	0.665580	0.009941	-0.746099	-17.327895	83.152868	162.218390
35753		-0.015518	0.665483	0.010031	-0.746184	-17.344335	83.136927	162.210318
35754		-0.015515	0.665428	0.010085	-0.746233	-17.357896	83.127617	162.201307
35755		-0.015464	0.665376	0.010187	-0.746279	-17.377889	83.118792	162.193780
35756		-0.015434	0.665334	0.010238	-0.746316	-17.378380	83.112229	162.199786
35757		-0.015428	0.665304	0.010321	-0.746342	-17.419738	83.105933	162.165627
35758		-0.015385	0.665262	0.010403	-0.746379	-17.434235	83.098958	162.161389
35759		-0.015320	0.665204	0.010516	-0.746431	-17.449626	83.089222	162.160442
35760		-0.015299	0.665172	0.010604	-0.746458	-17.485017	83.082994	162.133897
35761		-0.015279	0.665164	0.010707	-0.746465	-17.539909	83.079780	162.088970
35762		-0.015266	0.665162	0.010790	-0.746465	-17.587948	83.077935	162.048677
35763		-0.015209	0.665186	0.010924	-0.746443	-17.654378	83.079520	161.997783
35764		-0.015207	0.665210	0.010966	-0.746421	-17.690777	83.082102	161.964980
35765		-0.015192	0.665258	0.011020	-0.746378	-17.737222	83.088177	161.924092
35766		-0.015214	0.665312	0.011052	-0.746328	-17.794054	83.094811	161.868020
35767		-0.015200	0.665367	0.011081	-0.746279	-17.827223	83.102468	161.838463
35768		-0.015218	0.665399	0.011077	-0.746250	-17.848228	83.106811	161.815625
35769		-0.015225	0.665402	0.011076	-0.746248	-17.852641	83.107127	161.810559
35770		-0.015247	0.665394	0.011064	-0.746255	-17.854519	83.105705	161.805891
35771		-0.015219	0.665367	0.011076	-0.746279	-17.834942	83.102111	161.828739
35772		-0.015252	0.665321	0.011040	-0.746320	-17.812534	83.095513	161.845592
35773		-0.015309	0.665244	0.010988	-0.746388	-17.780819	83.084201	161.868390
35774		-0.015355	0.665187	0.010916	-0.746439	-17.737310	83.076507	161.902299
35775		-0.015395	0.665185	0.010857	-0.746441	-17.720485	83.076673	161.911183
35776		-0.015463	0.665210	0.010788	-0.746419	-17.723531	83.080321	161.896943
35777		-0.015531	0.665210	0.010756	-0.746417	-17.743347	83.079571	161.868979
35778		-0.015601	0.665205	0.010715	-0.746421	-17.755468	83.078153	161.847904
35779		-0.015657	0.665230	0.010675	-0.746398	-17.771854	83.081394	161.823728
35780		-0.015704	0.665241	0.010650	-0.746388	-17.786860	83.082509	161.802816
35781		-0.015709	0.665261	0.010645	-0.746370	-17.794930	83.085412	161.793995
35782		-0.015701	0.665287	0.010620	-0.746347	-17.782878	83.090006	161.804678
35783		-0.015666	0.665330	0.010587	-0.746310	-17.755726	83.097934	161.831973
35784		-0.015656	0.665386	0.010532	-0.746261	-17.734560	83.107593	161.849533
35785		-0.015688	0.665482	0.010462	-0.746176	-17.743122	83.122627	161.832682
35786		-0.015698	0.665609	0.010429	-0.746062	-17.776818	83.141816	161.795487
35787		-0.015713	0.665749	0.010443	-0.745937	-17.851623	83.161490	161.720577
35788		-0.015723	0.665922	0.010448	-0.745782	-17.930690	83.186426	161.641136
35789		-0.015716	0.666127	0.010452	-0.745600	-18.011471	83.216348	161.561223
35790		-0.015705	0.666314	0.010449	-0.745432	-18.079406	83.244090	161.493973
35791		-0.015711	0.666463	0.010402	-0.745300	-18.111012	83.266826	161.458139
35792		-0.015660	0.666622	0.010381	-0.745159	-18.129518	83.291682	161.441976
35793		-0.015584	0.666768	0.010367	-0.745030	-18.133136	83.315233	161.443381
35794		-0.015500	0.666866	0.010360	-0.744944	-18.116714	83.331681	161.466082
35795		-0.015436	0.666943	0.010346	-0.744877	-18.098359	83.344788	161.488486
35796		-0.015347	0.666985	0.010353	-0.744841	-18.065283	83.352849	161.529331
35797		-0.015280	0.667023	0.010330	-0.744808	-18.022821	83.360674	161.575360
35798		-0.015237	0.667039	0.010309	-0.744796	-17.987294	83.364422	161.612697
35799		-0.015199	0.667053	0.010286	-0.744784	-17.952413	83.367957	161.648838
35800		-0.015218	0.667067	0.010253	-0.744772	-17.947302	83.370319	161.649698
35801		-0.015249	0.667067	0.010245	-0.744771	-17.961003	83.369898	161.632897
35802		-0.015285	0.667033	0.010242	-0.744801	-17.967408	83.364066	161.623242
35803		-0.015341	0.666968	0.010275	-0.744857	-17.999090	83.352523	161.589724
35804		-0.015349	0.666878	0.010379	-0.744936	-18.040089	83.336675	161.556517
35805		-0.015345	0.666774	0.010521	-0.745028	-18.095155	83.318024	161.513354
35806		-0.015302	0.666658	0.010679	-0.745130	-18.131397	83.298318	161.493419
35807		-0.015196	0.666542	0.010904	-0.745233	-18.175312	83.278425	161.476359
35808		-0.015055	0.666432	0.011095	-0.745332	-18.175703	83.260999	161.502875
35809		-0.014887	0.666326	0.011248	-0.745427	-18.136459	83.245920	161.568190
35810		-0.014702	0.666247	0.011385	-0.745499	-18.084702	83.235451	161.646029
35811		-0.014530	0.666181	0.011476	-0.745561	-18.015945	83.227626	161.736173
35812		-0.014362	0.666093	0.011532	-0.745642	-17.915908	83.217403	161.854411
35813		-0.014215	0.666000	0.011594	-0.745726	-17.831832	83.205872	161.955410
35814		-0.014107	0.665916	0.011612	-0.745803	-17.744048	83.195751	162.053451
35815		-0.014026	0.665846	0.011590	-0.745867	-17.652125	83.187909	162.150158
35816		-0.013997	0.665784	0.011538	-0.745924	-17.573754	83.180673	162.226622
35817		-0.013975	0.665744	0.011483	-0.745961	-17.506819	83.176619	162.290913
35818		-0.013969	0.665723	0.011397	-0.745981	-17.434677	83.175693	162.356574
35819		-0.013987	0.665725	0.011284	-0.745981	-17.368525	83.178221	162.412022
35820		-0.013937	0.665709	0.011184	-0.745997	-17.262558	83.179330	162.513985
35821		-0.013890	0.665697	0.011105	-0.746011	-17.174144	83.180370	162.599744
35822		-0.013803	0.665664	0.011041	-0.746043	-17.063404	83.178982	162.712438
35823		-0.013651	0.665636	0.011011	-0.746071	-16.938744	83.178996	162.847017
35824		-0.013544	0.665584	0.010956	-0.746119	-16.815704	83.175048	162.974245
35825		-0.013416	0.665521	0.010941	-0.746179	-16.703057	83.168840	163.096066
35826		-0.013307	0.665459	0.010905	-0.746236	-16.588614	83.163039	163.216403
35827		-0.013201	0.665427	0.010895	-0.746267	-16.504634	83.160748	163.308191
35828		-0.013101	0.665401	0.010856	-0.746292	-16.406181	83.160087	163.411585
35829		-0.013032	0.665380	0.010832	-0.746312	-16.339703	83.158997	163.481781
35830		-0.012941	0.665361	0.010818	-0.746331	-16.267133	83.158456	163.560573
35831		-0.012863	0.665316	0.010783	-0.746373	-16.178795	83.154167	163.652380
35832		-0.012785	0.665257	0.010784	-0.746427	-16.110835	83.147162	163.726734
35833		-0.012705	0.665194	0.010809	-0.746484	-16.056476	83.139024	163.789643
35834		-0.012637	0.665130	0.010832	-0.746542	-16.007651	83.130627	163.845859
35835		-0.012561	0.665078	0.010901	-0.746589	-15.990349	83.122964	163.874842
35836		-0.012510	0.665019	0.010921	-0.746641	-15.952714	83.115039	163.918275
35837		-0.012433	0.664993	0.011017	-0.746665	-15.962066	83.110711	163.922979
35838		-0.012372	0.664965	0.011036	-0.746690	-15.928772	83.107510	163.962716
35839		-0.012308	0.664947	0.011069	-0.746707	-15.905627	83.105452	163.993766
35840		-0.012282	0.664913	0.011077	-0.746737	-15.884036	83.100895	164.018186
35841		-0.012269	0.664892	0.011084	-0.746757	-15.873635	83.097822	164.030206
35842		-0.012279	0.664873	0.011068	-0.746773	-15.862161	83.095239	164.039477
35843		-0.012283	0.664867	0.011053	-0.746779	-15.851675	83.094517	164.048484
35844		-0.012306	0.664875	0.011047	-0.746771	-15.864244	83.095435	164.033577
35845		-0.012313	0.664901	0.011021	-0.746748	-15.860078	83.099652	164.034987
35846		-0.012339	0.664927	0.010987	-0.746725	-15.861789	83.103626	164.028456
35847		-0.012372	0.664985	0.010951	-0.746674	-15.876800	83.112275	164.007833
35848		-0.012400	0.665052	0.010921	-0.746614	-15.896615	83.122156	163.983277
35849		-0.012380	0.665122	0.010932	-0.746552	-15.916782	83.132673	163.965722
35850		-0.012408	0.665183	0.010900	-0.746498	-15.933288	83.141781	163.944334
35851		-0.012431	0.665232	0.010869	-0.746454	-15.942798	83.149216	163.930384
35852		-0.012482	0.665288	0.010825	-0.746404	-15.964081	83.157331	163.901451
35853		-0.012520	0.665348	0.010786	-0.746350	-15.981618	83.166232	163.877633
35854		-0.012560	0.665405	0.010742	-0.746299	-15.995965	83.174708	163.856485
35855		-0.012597	0.665485	0.010704	-0.746228	-16.019861	83.186518	163.826476
35856		-0.012634	0.665558	0.010637	-0.746163	-16.022852	83.197980	163.815090
35857		-0.012713	0.665633	0.010531	-0.746096	-16.024178	83.209634	163.798708
35858		-0.012755	0.665705	0.010470	-0.746032	-16.033761	83.220660	163.780762
35859		-0.012808	0.665784	0.010391	-0.745962	-16.039821	83.232828	163.763995
35860		-0.012872	0.665841	0.010339	-0.745911	-16.062716	83.241076	163.731671
35861		-0.012910	0.665919	0.010285	-0.745842	-16.077091	83.252871	163.709806
35862		-0.012963	0.665984	0.010223	-0.745783	-16.090508	83.262759	163.687030
35863		-0.013034	0.666060	0.010201	-0.745715	-16.146286	83.272841	163.623766
35864		-0.013087	0.666134	0.010215	-0.745648	-16.216775	83.282311	163.550061
35865		-0.013160	0.666214	0.010236	-0.745574	-16.307557	83.292096	163.455092
35866		-0.013219	0.666301	0.010272	-0.745495	-16.401865	83.302891	163.358955
35867		-0.013281	0.666388	0.010325	-0.745415	-16.511488	83.313210	163.248582
35868		-0.013314	0.666460	0.010387	-0.745350	-16.602860	83.321639	163.159562
35869		-0.013354	0.666504	0.010435	-0.745309	-16.679182	83.326191	163.083931
35870		-0.013363	0.666538	0.010482	-0.745277	-16.731043	83.329986	163.035123
35871		-0.013372	0.666562	0.010531	-0.745255	-16.780801	83.332228	162.988586
35872		-0.013423	0.666604	0.010556	-0.745216	-16.846563	83.336747	162.920735
35873		-0.013491	0.666618	0.010576	-0.745202	-16.908837	83.336790	162.854580
35874		-0.013563	0.666628	0.010580	-0.745192	-16.961051	83.336472	162.796793
35875		-0.013644	0.666640	0.010579	-0.745180	-17.016183	83.336503	162.735013
35876		-0.013724	0.666658	0.010569	-0.745163	-17.066679	83.337523	162.677277
35877		-0.013770	0.666653	0.010587	-0.745166	-17.106483	83.335329	162.635143
35878		-0.013809	0.666676	0.010531	-0.745145	-17.100655	83.339186	162.633307
35879		-0.013874	0.666697	0.010485	-0.745126	-17.116658	83.341819	162.608283
35880		-0.013922	0.666701	0.010435	-0.745122	-17.112919	83.342488	162.603998
35881		-0.013957	0.666718	0.010405	-0.745107	-17.119766	83.344849	162.591955
35882		-0.014000	0.666740	0.010355	-0.745087	-17.120549	83.348254	162.583543
35883		-0.014090	0.666793	0.010270	-0.745039	-17.137408	83.355969	162.552498
35884		-0.014141	0.666863	0.010243	-0.744975	-17.178260	83.365773	162.505337
35885		-0.014171	0.666957	0.010200	-0.744891	-17.204184	83.379854	162.473465
35886		-0.014190	0.667052	0.010179	-0.744806	-17.238595	83.393846	162.435871
35887		-0.014177	0.667142	0.010198	-0.744726	-17.279814	83.406907	162.397223
35888		-0.014168	0.667208	0.010209	-0.744667	-17.309117	83.416533	162.369559
35889		-0.014133	0.667267	0.010259	-0.744614	-17.345721	83.424820	162.339898
35890		-0.014127	0.667316	0.010293	-0.744569	-17.386377	83.431421	162.302477
35891		-0.014139	0.667356	0.010324	-0.744533	-17.431829	83.436225	162.258550
35892		-0.014124	0.667389	0.010379	-0.744503	-17.476515	83.440185	162.219542
35893		-0.014115	0.667425	0.010411	-0.744470	-17.508063	83.444889	162.191321
35894		-0.014124	0.667459	0.010458	-0.744439	-17.561358	83.448591	162.141079
35895		-0.014110	0.667485	0.010514	-0.744415	-17.602712	83.451371	162.105475
35896		-0.014099	0.667484	0.010563	-0.744416	-17.631317	83.450313	162.081725
35897		-0.014047	0.667475	0.010632	-0.744424	-17.643359	83.448615	162.079459
35898		-0.014030	0.667443	0.010664	-0.744453	-17.642376	83.443471	162.084405
35899		-0.014049	0.667371	0.010681	-0.744516	-17.637015	83.432137	162.089614
35900		-0.014051	0.667303	0.010735	-0.744576	-17.649546	83.420844	162.081391
35901		-0.014074	0.667235	0.010804	-0.744636	-17.685480	83.408616	162.049171
35902		-0.014073	0.667157	0.010878	-0.744705	-17.706082	83.395510	162.034579
35903		-0.014078	0.667078	0.010951	-0.744774	-17.729000	83.382140	162.017205
35904		-0.014089	0.666996	0.011013	-0.744846	-17.746882	83.368412	162.003416
35905		-0.014076	0.666907	0.011084	-0.744925	-17.752348	83.353969	162.004813
35906		-0.014041	0.666819	0.011162	-0.745004	-17.749680	83.339994	162.016682
35907		-0.013989	0.666748	0.011265	-0.745067	-17.761631	83.328464	162.017281
35908		-0.013942	0.666664	0.011355	-0.745141	-17.761561	83.315109	162.028470
35909		-0.013901	0.666588	0.011418	-0.745209	-17.749894	83.303495	162.048628
35910		-0.013863	0.666499	0.011530	-0.745288	-17.768776	83.288691	162.041854
35911		-0.013807	0.666418	0.011650	-0.745359	-17.786139	83.275332	162.038740
35912		-0.013774	0.666311	0.011761	-0.745454	-17.800196	83.257798	162.036395
35913		-0.013739	0.666196	0.011886	-0.745555	-17.819512	83.238828	162.030087
35914		-0.013733	0.666071	0.011987	-0.745665	-17.836930	83.218306	162.021359
35915		-0.013716	0.665957	0.012084	-0.745766	-17.848804	83.199697	162.018732
35916		-0.013735	0.665849	0.012183	-0.745860	-17.885279	83.181186	161.988751
35917		-0.013756	0.665746	0.012249	-0.745951	-17.902996	83.164030	161.974667
35918		-0.013729	0.665636	0.012342	-0.746048	-17.907821	83.146333	161.979600
35919		-0.013736	0.665540	0.012445	-0.746132	-17.944010	83.129729	161.951174
35920		-0.013708	0.665516	0.012552	-0.746152	-17.991724	83.124359	161.914416
35921		-0.013672	0.665392	0.012695	-0.746261	-18.018860	83.103717	161.901848
35922		-0.013621	0.665285	0.012810	-0.746355	-18.024859	83.086501	161.909297
35923		-0.013565	0.665266	0.012926	-0.746372	-18.062373	83.082225	161.885815
35924		-0.013508	0.665235	0.013046	-0.746398	-18.097557	83.076282	161.864958
35925		-0.013428	0.665182	0.013161	-0.746444	-18.107744	83.067739	161.870583
35926		-0.013396	0.665135	0.013243	-0.746486	-18.124772	83.059579	161.862839
35927		-0.013407	0.665095	0.013223	-0.746521	-18.103104	83.054057	161.881989
35928		-0.013408	0.665059	0.013239	-0.746553	-18.100141	83.048365	161.886113
35929		-0.013434	0.665004	0.013258	-0.746601	-18.106470	83.039325	161.879237
35930		-0.013484	0.664952	0.013277	-0.746646	-18.129629	83.030076	161.853575
35931		-0.013520	0.664906	0.013316	-0.746686	-18.158652	83.021504	161.824839
35932		-0.013558	0.664827	0.013325	-0.746755	-18.156754	83.008876	161.824367
35933		-0.013628	0.664758	0.013336	-0.746815	-18.178982	82.996948	161.797290
35934		-0.013663	0.664666	0.013385	-0.746896	-18.195976	82.981434	161.781464
35935		-0.013690	0.664611	0.013432	-0.746944	-18.222326	82.971632	161.756666
35936		-0.013623	0.664546	0.013516	-0.747001	-18.213711	82.961863	161.777605
35937		-0.013434	0.664483	0.013642	-0.747058	-18.162235	82.954072	161.854637
35938		-0.013146	0.664414	0.013807	-0.747121	-18.076990	82.947024	161.976696
35939		-0.012769	0.664343	0.014028	-0.747188	-17.975640	82.940292	162.126584
35940		-0.012362	0.664265	0.014271	-0.747259	-17.868843	82.932867	162.286081
35941		-0.011922	0.664212	0.014488	-0.747309	-17.735718	82.930416	162.472625
35942		-0.011460	0.664149	0.014731	-0.747367	-17.602923	82.926350	162.662658
35943		-0.011015	0.664113	0.014989	-0.747401	-17.500305	82.925599	162.822306
35944		-0.010587	0.664078	0.015256	-0.747432	-17.414586	82.924329	162.964477
35945		-0.010179	0.664057	0.015556	-0.747451	-17.368484	82.923797	163.068024
35946		-0.009826	0.664048	0.015822	-0.747458	-17.335464	82.924606	163.151289
35947		-0.009517	0.664045	0.016076	-0.747459	-17.323211	82.925681	163.209245
35948		-0.009253	0.664073	0.016311	-0.747432	-17.335963	82.930558	163.237067
35949		-0.009041	0.664002	0.016558	-0.747493	-17.351406	82.919526	163.258847
35950		-0.008851	0.663950	0.016783	-0.747536	-17.371876	82.911313	163.272032
35951		-0.008706	0.663957	0.016961	-0.747527	-17.408740	82.911737	163.261405
35952		-0.008578	0.664000	0.017118	-0.747487	-17.454114	82.917446	163.239129
35953		-0.008451	0.664043	0.017281	-0.747447	-17.504650	82.923102	163.212254
35954		-0.008371	0.664080	0.017395	-0.747412	-17.547387	82.927851	163.185241
35955		-0.008298	0.664114	0.017505	-0.747381	-17.591017	82.931989	163.156433
35956		-0.008237	0.664146	0.017579	-0.747351	-17.617087	82.936471	163.141302
35957		-0.008166	0.664184	0.017658	-0.747316	-17.641737	82.941900	163.128860
35958		-0.008108	0.664211	0.017697	-0.747292	-17.643806	82.946430	163.134683
35959		-0.008049	0.664215	0.017722	-0.747288	-17.627689	82.947772	163.157553
35960		-0.008003	0.664204	0.017714	-0.747299	-17.591408	82.947401	163.196966
35961		-0.007951	0.664192	0.017713	-0.747310	-17.554862	82.946929	163.237649
35962		-0.007899	0.664197	0.017716	-0.747306	-17.528540	82.948767	163.268421
35963		-0.007833	0.664243	0.017732	-0.747265	-17.516926	82.956727	163.286688
35964		-0.007767	0.664269	0.017725	-0.747243	-17.482332	82.962202	163.326062
35965		-0.007687	0.664300	0.017722	-0.747216	-17.444542	82.968668	163.370087
35966		-0.007633	0.664333	0.017707	-0.747188	-17.414383	82.975043	163.403401
35967		-0.007580	0.664390	0.017724	-0.747137	-17.415008	82.984251	163.408477
35968		-0.007535	0.664421	0.017743	-0.747110	-17.412250	82.989444	163.416440
35969		-0.007481	0.664416	0.017801	-0.747114	-17.417925	82.988629	163.419844
35970		-0.007426	0.664418	0.017848	-0.747111	-17.417829	82.989135	163.428213
35971		-0.007378	0.664389	0.017921	-0.747136	-17.428319	82.984378	163.427536
35972		-0.007282	0.664373	0.017975	-0.747149	-17.402555	82.983136	163.465502
35973		-0.007176	0.664367	0.018047	-0.747154	-17.386206	82.983010	163.496326
35974		-0.007062	0.664378	0.018065	-0.747145	-17.334387	82.986889	163.558805
35975		-0.006973	0.664378	0.018043	-0.747146	-17.266469	82.989429	163.632203
35976		-0.006885	0.664380	0.018014	-0.747146	-17.194714	82.992327	163.708803
35977		-0.006827	0.664410	0.017967	-0.747121	-17.139187	82.999079	163.765123
35978		-0.006776	0.664458	0.017935	-0.747079	-17.103989	83.007997	163.801924
35979		-0.006771	0.664514	0.017871	-0.747031	-17.078063	83.017625	163.823029
35980		-0.006754	0.664556	0.017829	-0.746995	-17.053998	83.025176	163.845077
35981		-0.006754	0.664602	0.017797	-0.746955	-17.048925	83.032519	163.847563
35982		-0.006760	0.664656	0.017750	-0.746908	-17.039694	83.041372	163.852444
35983		-0.006784	0.664719	0.017660	-0.746854	-17.014878	83.052013	163.867996
35984		-0.006793	0.664774	0.017579	-0.746807	-16.984649	83.061650	163.890972
35985		-0.006783	0.664844	0.017499	-0.746747	-16.948887	83.073760	163.921037
35986		-0.006787	0.664911	0.017417	-0.746688	-16.919101	83.085370	163.943823
35987		-0.006779	0.664958	0.017362	-0.746648	-16.893277	83.093577	163.965846
35988		-0.006785	0.664996	0.017309	-0.746616	-16.873323	83.100128	163.981016
35989		-0.006778	0.665028	0.017291	-0.746588	-16.868010	83.105420	163.985409
35990		-0.006794	0.665028	0.017214	-0.746589	-16.824607	83.106751	164.021248
35991		-0.006805	0.665026	0.017173	-0.746591	-16.803280	83.107094	164.038339
35992		-0.006830	0.664994	0.017108	-0.746621	-16.761101	83.103187	164.073221
35993		-0.006850	0.664942	0.017063	-0.746668	-16.723950	83.096033	164.105091
35994		-0.006919	0.664887	0.016981	-0.746719	-16.689881	83.088096	164.126960
35995		-0.007007	0.664829	0.016878	-0.746772	-16.651265	83.079717	164.150085
35996		-0.007084	0.664752	0.016813	-0.746841	-16.625577	83.068080	164.164125
35997		-0.007149	0.664675	0.016787	-0.746910	-16.619572	83.055885	164.162851
35998		-0.007204	0.664620	0.016738	-0.746960	-16.599813	83.047537	164.174165
35999		-0.007225	0.664554	0.016732	-0.747018	-16.585381	83.037498	164.186432
36000		-0.007248	0.664460	0.016706	-0.747102	-16.548263	83.023658	164.219587
36001		-0.007259	0.664364	0.016679	-0.747187	-16.503111	83.009967	164.261621
36002		-0.007258	0.664253	0.016656	-0.747287	-16.448166	82.994029	164.314791
36003		-0.007266	0.664164	0.016615	-0.747367	-16.394342	82.981670	164.364670
36004		-0.007252	0.664078	0.016561	-0.747445	-16.319496	82.970360	164.436233
36005		-0.007252	0.664000	0.016536	-0.747514	-16.275782	82.959399	164.477860
36006		-0.007330	0.663929	0.016472	-0.747578	-16.254391	82.948515	164.487748
36007		-0.007408	0.663844	0.016418	-0.747654	-16.235450	82.935454	164.496031
36008		-0.007508	0.663760	0.016351	-0.747729	-16.221035	82.922305	164.496947
36009		-0.007624	0.663695	0.016269	-0.747787	-16.212897	82.911918	164.488944
36010		-0.007733	0.663633	0.016183	-0.747843	-16.197569	82.902174	164.488481
36011		-0.007830	0.663559	0.016111	-0.747909	-16.181292	82.890704	164.490960
36012		-0.007886	0.663466	0.016014	-0.747994	-16.118570	82.877700	164.541314
36013		-0.007936	0.663395	0.015946	-0.748057	-16.078418	82.867688	164.571893
36014		-0.007969	0.663316	0.015876	-0.748129	-16.023947	82.856688	164.617975
36015		-0.007991	0.663254	0.015792	-0.748185	-15.959991	82.848829	164.673373
36016		-0.008016	0.663198	0.015695	-0.748236	-15.891807	82.842011	164.731697
36017		-0.008063	0.663130	0.015595	-0.748299	-15.829486	82.832946	164.782002
36018		-0.008103	0.663070	0.015515	-0.748353	-15.780198	82.824821	164.821529
36019		-0.008160	0.663029	0.015452	-0.748390	-15.758047	82.818935	164.833997
36020		-0.008227	0.662969	0.015391	-0.748443	-15.737475	82.809933	164.844200
36021		-0.008333	0.662886	0.015287	-0.748518	-15.703047	82.797537	164.861553
36022		-0.008390	0.662809	0.015197	-0.748587	-15.651554	82.786801	164.901106
36023		-0.008489	0.662828	0.015097	-0.748572	-15.648453	82.789486	164.888051
36024		-0.008580	0.662865	0.015023	-0.748539	-15.664289	82.794602	164.858753
36025		-0.008647	0.662847	0.014986	-0.748555	-15.672908	82.791293	164.841779
36026		-0.008742	0.662806	0.014940	-0.748591	-15.684949	82.784244	164.818276
36027		-0.008781	0.662787	0.014932	-0.748607	-15.695557	82.780804	164.803877
36028		-0.008888	0.662802	0.014845	-0.748594	-15.705606	82.782543	164.778050
36029		-0.008997	0.662843	0.014748	-0.748560	-15.717105	82.788154	164.749885
36030		-0.009116	0.662828	0.014630	-0.748573	-15.702973	82.785910	164.744671
36031		-0.009252	0.662761	0.014491	-0.748634	-15.668246	82.775955	164.757134
36032		-0.009384	0.662682	0.014305	-0.748706	-15.596000	82.765321	164.803604
36033		-0.009557	0.662578	0.014082	-0.748800	-15.515307	82.750894	164.852140
36034		-0.009748	0.662420	0.013856	-0.748941	-15.426561	82.728216	164.906987
36035		-0.009945	0.662248	0.013622	-0.749095	-15.331620	82.703440	164.966984
36036		-0.010185	0.662063	0.013396	-0.749259	-15.263604	82.675805	164.997126
36037		-0.010405	0.661835	0.013174	-0.749461	-15.173308	82.642144	165.051473
36038		-0.010652	0.661571	0.012954	-0.749695	-15.088850	82.602546	165.098051
36039		-0.010905	0.661282	0.012738	-0.749950	-15.004960	82.559053	165.143854
36040		-0.011136	0.660972	0.012534	-0.750223	-14.910618	82.512833	165.202886
36041		-0.011371	0.660660	0.012359	-0.750497	-14.836556	82.465540	165.243745
36042		-0.011583	0.660363	0.012187	-0.750758	-14.757235	82.420895	165.291762
36043		-0.011755	0.660099	0.012056	-0.750990	-14.692374	82.381164	165.332022
36044		-0.011929	0.659835	0.011908	-0.751222	-14.618434	82.341626	165.379899
36045		-0.012110	0.659605	0.011778	-0.751423	-14.569865	82.306642	165.403211
36046		-0.012272	0.659396	0.011684	-0.751605	-14.539367	82.274519	165.412869
36047		-0.012393	0.659207	0.011672	-0.751769	-14.544469	82.244560	165.396930
36048		-0.012508	0.659035	0.011643	-0.751918	-14.539599	82.217560	165.390157
36049		-0.012637	0.658882	0.011619	-0.752050	-14.551356	82.193023	165.366005
36050		-0.012716	0.658745	0.011633	-0.752169	-14.564338	82.171017	165.347732
36051		-0.012769	0.658611	0.011686	-0.752285	-14.587414	82.149235	165.324558
36052		-0.012825	0.658491	0.011738	-0.752387	-14.615480	82.129540	165.296262
36053		-0.012870	0.658360	0.011829	-0.752500	-14.658452	82.107515	165.256995
36054		-0.012879	0.658219	0.011881	-0.752623	-14.655569	82.085578	165.263400
36055		-0.012928	0.658088	0.011932	-0.752735	-14.677031	82.064424	165.242068
36056		-0.012944	0.657959	0.011984	-0.752847	-14.680298	82.044120	165.241728
36057		-0.012986	0.657847	0.012017	-0.752943	-14.691884	82.026193	165.229367
36058		-0.012992	0.657723	0.012047	-0.753051	-14.678662	82.007229	165.244528
36059		-0.013028	0.657605	0.012042	-0.753154	-14.661560	81.989250	165.258328
36060		-0.013043	0.657482	0.012033	-0.753261	-14.630421	81.971075	165.287609
36061		-0.013048	0.657356	0.012045	-0.753371	-14.606147	81.952168	165.312379
36062		-0.013085	0.657189	0.012012	-0.753516	-14.559358	81.927561	165.353492
36063		-0.013093	0.657004	0.012021	-0.753678	-14.518876	81.899898	165.394052
36064		-0.013124	0.656758	0.011992	-0.753892	-14.451676	81.863646	165.456409
36065		-0.013108	0.656508	0.012009	-0.754110	-14.386604	81.826847	165.524082
36066		-0.013122	0.656198	0.012001	-0.754379	-14.307570	81.781116	165.601322
36067		-0.013183	0.655881	0.011965	-0.754654	-14.234784	81.734076	165.666212
36068		-0.013217	0.655557	0.011987	-0.754935	-14.181534	81.685374	165.718554
36069		-0.013245	0.655193	0.012021	-0.755250	-14.122458	81.630642	165.778110
36070		-0.013298	0.654798	0.012031	-0.755591	-14.054941	81.571353	165.842130
36071		-0.013330	0.654440	0.012059	-0.755900	-13.997400	81.517647	165.899372
36072		-0.013373	0.654103	0.012027	-0.756192	-13.916876	81.467800	165.973804
36073		-0.013475	0.653758	0.011969	-0.756489	-13.849741	81.416388	166.027958
36074		-0.013604	0.653387	0.011955	-0.756807	-13.815019	81.359733	166.050966
36075		-0.013798	0.653017	0.011931	-0.757123	-13.806194	81.302281	166.042152
36076		-0.014014	0.652676	0.011918	-0.757413	-13.821253	81.248570	166.008454
36077		-0.014236	0.652391	0.011905	-0.757655	-13.851640	81.202892	165.958915
36078		-0.014493	0.652157	0.011888	-0.757852	-13.908742	81.164253	165.879604
36079		-0.014726	0.651970	0.011862	-0.758009	-13.959410	81.133042	165.807809
36080		-0.014999	0.651844	0.011790	-0.758113	-14.018123	81.110934	165.721029
36081		-0.015255	0.651760	0.011688	-0.758182	-14.062039	81.095806	165.648018
36082		-0.015545	0.651683	0.011578	-0.758243	-14.119526	81.081281	165.558049
36083		-0.015869	0.651567	0.011469	-0.758338	-14.182616	81.060380	165.459729
36084		-0.016272	0.651403	0.011365	-0.758472	-14.274303	81.030830	165.326891
36085		-0.016720	0.651134	0.011241	-0.758696	-14.349206	80.985455	165.205498
36086		-0.017245	0.650811	0.011047	-0.758964	-14.407559	80.932181	165.088645
36087		-0.017880	0.650343	0.010748	-0.759355	-14.424159	80.857736	164.996102
36088		-0.018645	0.649770	0.010389	-0.759831	-14.442445	80.766887	164.886349
36089		-0.019562	0.649070	0.009971	-0.760412	-14.465610	80.655798	164.754610
36090		-0.020632	0.648291	0.009474	-0.761054	-14.495201	80.532175	164.597568
36091		-0.021812	0.647495	0.008884	-0.761705	-14.518169	80.406115	164.430641
36092		-0.023186	0.646634	0.008143	-0.762405	-14.530454	80.270176	164.246223
36093		-0.024751	0.645720	0.007235	-0.763139	-14.525834	80.126843	164.049472
36094		-0.026524	0.644739	0.006115	-0.763918	-14.485523	79.974666	163.854356
36095		-0.028611	0.643580	0.004727	-0.764829	-14.402478	79.797317	163.654509
36096		-0.030909	0.642417	0.003186	-0.765725	-14.328334	79.619378	163.415939
36097		-0.033429	0.641380	0.001500	-0.766493	-14.299435	79.459729	163.102230
36098		-0.036051	0.640444	-0.000238	-0.767158	-14.304969	79.314838	162.741474
36099		-0.038709	0.639562	-0.002053	-0.767761	-14.297580	79.179896	162.384283
36100		-0.041239	0.638735	-0.003829	-0.768311	-14.269214	79.055254	162.061629
36101		-0.043653	0.637971	-0.005584	-0.768802	-14.219122	78.942199	161.771785
36102		-0.045841	0.637273	-0.007196	-0.769240	-14.162736	78.840213	161.518293
36103		-0.047797	0.636610	-0.008679	-0.769655	-14.084704	78.745150	161.315768
36104		-0.049434	0.635989	-0.009995	-0.770049	-13.973075	78.658511	161.186392
36105		-0.050734	0.635503	-0.011169	-0.770349	-13.830897	78.594153	161.126599
36106		-0.051582	0.635253	-0.012126	-0.770484	-13.670820	78.566647	161.139440
36107		-0.052037	0.635260	-0.012911	-0.770435	-13.497822	78.578458	161.211403
36108		-0.052072	0.635390	-0.013509	-0.770315	-13.279355	78.610763	161.378447
36109		-0.051792	0.635521	-0.013974	-0.770218	-13.004208	78.645085	161.638719
36110		-0.051230	0.635628	-0.014275	-0.770162	-12.691846	78.676683	161.972500
36111		-0.050507	0.635713	-0.014513	-0.770134	-12.342445	78.706056	162.361535
36112		-0.049687	0.635807	-0.014729	-0.770106	-11.966901	78.737241	162.786461
36113		-0.048851	0.635925	-0.014901	-0.770059	-11.607550	78.770638	163.200028
36114		-0.048058	0.636001	-0.015104	-0.770042	-11.240031	78.797563	163.615770
36115		-0.047367	0.636033	-0.015349	-0.770054	-10.882577	78.817112	164.009627
36116		-0.046710	0.636090	-0.015619	-0.770041	-10.529275	78.839980	164.394577
36117		-0.046179	0.636185	-0.015960	-0.769988	-10.196301	78.867562	164.743121
36118		-0.045713	0.636272	-0.016315	-0.769936	-9.878561	78.893197	165.070060
36119		-0.045296	0.636357	-0.016655	-0.769884	-9.583678	78.917194	165.371368
36120		-0.044970	0.636430	-0.016997	-0.769835	-9.319310	78.938105	165.634492
36121		-0.044745	0.636491	-0.017347	-0.769790	-9.086576	78.956166	165.857166
36122		-0.044541	0.636531	-0.017606	-0.769763	-8.898950	78.968968	166.040315
36123		-0.044428	0.636516	-0.017839	-0.769777	-8.748378	78.972216	166.181146
36124		-0.044325	0.636455	-0.018013	-0.769828	-8.622257	78.967652	166.301437
36125		-0.044252	0.636408	-0.018149	-0.769868	-8.525587	78.963964	166.392949
36126		-0.044170	0.636374	-0.018278	-0.769898	-8.431470	78.962211	166.483234
36127		-0.044085	0.636302	-0.018408	-0.769959	-8.330306	78.954833	166.580752
36128		-0.043981	0.636189	-0.018466	-0.770058	-8.248558	78.940357	166.666131
36129		-0.043871	0.636110	-0.018475	-0.770129	-8.191400	78.930200	166.731527
36130		-0.043720	0.636124	-0.018436	-0.770127	-8.154145	78.933180	166.784207
36131		-0.043576	0.636166	-0.018351	-0.770102	-8.144566	78.939325	166.812531
36132		-0.043429	0.636119	-0.018255	-0.770152	-8.125677	78.932393	166.851189
36133		-0.043320	0.635949	-0.018124	-0.770301	-8.119974	78.906549	166.876327
36134		-0.043234	0.635816	-0.017997	-0.770418	-8.126064	78.885947	166.887500
36135		-0.043167	0.635667	-0.017839	-0.770549	-8.151160	78.862226	166.880668
36136		-0.043078	0.635681	-0.017728	-0.770545	-8.169716	78.863214	166.878357
36137		-0.043021	0.635931	-0.017660	-0.770343	-8.214458	78.899286	166.844002
36138		-0.042935	0.636116	-0.017539	-0.770198	-8.262967	78.925081	166.812469
36139		-0.042862	0.636308	-0.017464	-0.770046	-8.296518	78.952669	166.791041
36140		-0.042753	0.636594	-0.017349	-0.769818	-8.349219	78.993679	166.756791
36141		-0.042585	0.636903	-0.017212	-0.769574	-8.392576	79.038337	166.738507
36142		-0.042483	0.636935	-0.017062	-0.769557	-8.426458	79.041479	166.725143
36143		-0.042400	0.636967	-0.016949	-0.769537	-8.451100	79.045196	166.716448
36144		-0.042347	0.637014	-0.016835	-0.769504	-8.489949	79.050605	166.691245
36145		-0.042294	0.637177	-0.016745	-0.769374	-8.534870	79.073471	166.658030
36146		-0.042257	0.637391	-0.016704	-0.769200	-8.570823	79.104486	166.628580
36147		-0.042216	0.637507	-0.016694	-0.769106	-8.577232	79.121779	166.626407
36148		-0.042126	0.637713	-0.016717	-0.768939	-8.563210	79.153283	166.646008
36149		-0.041998	0.637997	-0.016729	-0.768710	-8.550648	79.196430	166.668158
36150		-0.041853	0.638232	-0.016747	-0.768523	-8.521464	79.232601	166.707901
36151		-0.041675	0.638425	-0.016718	-0.768373	-8.494353	79.262410	166.751920
36152		-0.041487	0.638568	-0.016693	-0.768265	-8.454211	79.284967	166.809486
36153		-0.041303	0.638690	-0.016634	-0.768174	-8.428490	79.303876	166.855126
36154		-0.041155	0.638775	-0.016581	-0.768113	-8.407890	79.317006	166.892104
36155		-0.041008	0.638794	-0.016518	-0.768106	-8.382493	79.320336	166.934692
36156		-0.040894	0.638727	-0.016427	-0.768171	-8.370478	79.310130	166.963367
36157		-0.040789	0.638652	-0.016334	-0.768241	-8.361463	79.298722	166.988425
36158		-0.040679	0.638647	-0.016254	-0.768252	-8.355581	79.297946	167.009774
36159		-0.040547	0.638713	-0.016126	-0.768207	-8.373317	79.306814	167.013259
36160		-0.040407	0.638766	-0.015977	-0.768173	-8.395416	79.313607	167.014717
36161		-0.040265	0.638800	-0.015814	-0.768156	-8.421300	79.317430	167.013682
36162		-0.040074	0.638885	-0.015653	-0.768098	-8.434470	79.329319	167.029235
36163		-0.039867	0.638929	-0.015443	-0.768077	-8.457576	79.334415	167.040079
36164		-0.039660	0.638946	-0.015274	-0.768077	-8.458235	79.336351	167.070044
36165		-0.039433	0.638997	-0.015126	-0.768049	-8.446415	79.343910	167.112466
36166		-0.039210	0.639045	-0.015014	-0.768022	-8.418391	79.351541	167.167767
36167		-0.039006	0.639114	-0.014947	-0.767976	-8.379856	79.362806	167.228433
36168		-0.038820	0.639215	-0.014897	-0.767903	-8.344552	79.378747	167.283001
36169		-0.038653	0.639284	-0.014852	-0.767855	-8.310163	79.389919	167.334669
36170		-0.038496	0.639394	-0.014802	-0.767772	-8.287664	79.406983	167.374109
36171		-0.038339	0.639501	-0.014732	-0.767692	-8.274482	79.423248	167.405829
36172		-0.038166	0.639605	-0.014641	-0.767616	-8.264172	79.438793	167.437650
36173		-0.037994	0.639731	-0.014572	-0.767521	-8.247082	79.458044	167.474506
36174		-0.037779	0.639871	-0.014494	-0.767416	-8.219034	79.479646	167.526477
36175		-0.037553	0.639991	-0.014376	-0.767330	-8.202372	79.497722	167.571157
36176		-0.037353	0.640075	-0.014300	-0.767271	-8.170576	79.510939	167.625534
36177		-0.037230	0.640155	-0.014278	-0.767211	-8.144040	79.523623	167.663929
36178		-0.037059	0.640216	-0.014224	-0.767169	-8.109751	79.533563	167.716599
36179		-0.036890	0.640276	-0.014160	-0.767128	-8.081461	79.543172	167.763799
36180		-0.036755	0.640344	-0.014124	-0.767079	-8.054250	79.553974	167.805089
36181		-0.036647	0.640418	-0.014120	-0.767022	-8.023507	79.565912	167.844932
36182		-0.036523	0.640481	-0.014095	-0.766976	-7.994647	79.576064	167.885916
36183		-0.036407	0.640529	-0.014039	-0.766942	-7.981337	79.583445	167.913299
36184		-0.036284	0.640559	-0.013975	-0.766924	-7.966656	79.588213	167.943203
36185		-0.036162	0.640552	-0.013908	-0.766937	-7.948932	79.587385	167.976302
36186		-0.036025	0.640539	-0.013839	-0.766955	-7.925169	79.585859	168.016899
36187		-0.035946	0.640535	-0.013822	-0.766963	-7.901151	79.585751	168.048685
36188		-0.035825	0.640497	-0.013754	-0.767001	-7.879155	79.580343	168.086039
36189		-0.035676	0.640459	-0.013661	-0.767041	-7.858531	79.574900	168.126371
36190		-0.035576	0.640406	-0.013586	-0.767092	-7.846546	79.566878	168.152588
36191		-0.035448	0.640359	-0.013481	-0.767139	-7.838793	79.559786	168.179265
36192		-0.035323	0.640292	-0.013391	-0.767202	-7.822483	79.549796	168.213079
36193		-0.035162	0.640254	-0.013264	-0.767243	-7.813353	79.543916	168.245642
36194		-0.035004	0.640204	-0.013181	-0.767294	-7.782543	79.536799	168.295952
36195		-0.034819	0.640152	-0.013083	-0.767347	-7.748497	79.529613	168.353065
36196		-0.034653	0.640106	-0.013022	-0.767394	-7.704555	79.523631	168.415524
36197		-0.034500	0.640060	-0.012963	-0.767440	-7.665202	79.517528	168.472009
36198		-0.034334	0.640020	-0.012900	-0.767482	-7.623197	79.512343	168.532687
36199		-0.034202	0.639948	-0.012865	-0.767549	-7.577419	79.502433	168.592036
36200		-0.034098	0.639876	-0.012825	-0.767614	-7.545575	79.492359	168.635599
36201		-0.034003	0.639820	-0.012775	-0.767666	-7.524040	79.484238	168.668944
36202		-0.033933	0.639763	-0.012726	-0.767718	-7.511603	79.475807	168.690971
36203		-0.033855	0.639732	-0.012650	-0.767748	-7.512701	79.470920	168.702442
36204		-0.033809	0.639696	-0.012531	-0.767782	-7.546236	79.464306	168.682365
36205		-0.033753	0.639660	-0.012417	-0.767816	-7.573697	79.457871	168.668651
36206		-0.033636	0.639627	-0.012257	-0.767851	-7.598415	79.451907	168.666455
36207		-0.033537	0.639621	-0.012095	-0.767863	-7.635391	79.449569	168.650738
36208		-0.033374	0.639590	-0.011927	-0.767898	-7.645918	79.444227	168.667126
36209		-0.033237	0.639547	-0.011780	-0.767943	-7.655645	79.436975	168.680528
36210		-0.033073	0.639520	-0.011600	-0.767975	-7.672259	79.432007	168.691907
36211		-0.032923	0.639506	-0.011438	-0.767996	-7.687363	79.429078	168.702168
36212		-0.032738	0.639488	-0.011268	-0.768021	-7.692299	79.425893	168.726191
36213		-0.032551	0.639456	-0.011065	-0.768059	-7.709793	79.420069	168.740400
36214		-0.032400	0.639443	-0.010901	-0.768078	-7.726063	79.417339	168.749719
36215		-0.032282	0.639434	-0.010808	-0.768092	-7.722084	79.415789	168.770948
36216		-0.032146	0.639405	-0.010693	-0.768123	-7.718696	79.411293	168.794722
36217		-0.032047	0.639392	-0.010584	-0.768140	-7.729567	79.408736	168.800819
36218		-0.031952	0.639369	-0.010481	-0.768164	-7.737654	79.404783	168.808852
36219		-0.031902	0.639346	-0.010394	-0.768187	-7.755739	79.400680	168.801862
36220		-0.031834	0.639296	-0.010293	-0.768232	-7.770254	79.392590	168.801125
36221		-0.031828	0.639241	-0.010225	-0.768279	-7.792738	79.383572	168.784609
36222		-0.031819	0.639210	-0.010145	-0.768307	-7.822713	79.377911	168.761776
36223		-0.031826	0.639180	-0.010120	-0.768332	-7.833403	79.373074	168.752601
36224		-0.031824	0.639167	-0.010101	-0.768343	-7.839613	79.370862	168.748145
36225		-0.031838	0.639179	-0.010109	-0.768332	-7.843005	79.372644	168.742892
36226		-0.031829	0.639204	-0.010122	-0.768312	-7.836591	79.376525	168.749022
36227		-0.031815	0.639246	-0.010098	-0.768278	-7.847993	79.382467	168.740739
36228		-0.031816	0.639278	-0.010096	-0.768250	-7.854011	79.387268	168.734812
36229		-0.031834	0.639319	-0.010083	-0.768216	-7.872124	79.392836	168.716277
36230		-0.031801	0.639358	-0.010070	-0.768185	-7.870467	79.398810	168.721711
36231		-0.031765	0.639395	-0.010043	-0.768156	-7.874236	79.404201	168.723087
36232		-0.031737	0.639418	-0.010041	-0.768138	-7.867331	79.407823	168.732398
36233		-0.031687	0.639429	-0.010009	-0.768132	-7.864031	79.409386	168.742465
36234		-0.031645	0.639420	-0.009997	-0.768141	-7.852055	79.408328	168.758773
36235		-0.031596	0.639383	-0.009943	-0.768175	-7.853049	79.402668	168.766193
36236		-0.031519	0.639340	-0.009873	-0.768214	-7.850139	79.396160	168.780976
36237		-0.031416	0.639274	-0.009764	-0.768275	-7.852567	79.385908	168.795845
36238		-0.031312	0.639227	-0.009630	-0.768320	-7.867865	79.378105	168.799858
36239		-0.031212	0.639170	-0.009495	-0.768373	-7.884800	79.368710	168.802056
36240		-0.031080	0.639108	-0.009313	-0.768432	-7.910404	79.358422	168.801957
36241		-0.030911	0.639040	-0.009101	-0.768498	-7.934723	79.347069	168.808623
36242		-0.030737	0.638960	-0.008902	-0.768574	-7.949572	79.334173	168.824149
36243		-0.030598	0.638883	-0.008720	-0.768646	-7.970102	79.321700	168.829724
36244		-0.030431	0.638782	-0.008544	-0.768738	-7.973729	79.306078	168.854015
36245		-0.030307	0.638670	-0.008401	-0.768838	-7.977367	79.288809	168.871988
36246		-0.030189	0.638576	-0.008275	-0.768922	-7.978065	79.274324	168.891116
36247		-0.030118	0.638512	-0.008178	-0.768979	-7.987416	79.264284	168.895467
36248		-0.030001	0.638484	-0.008078	-0.769007	-7.984693	79.260048	168.915879
36249		-0.029848	0.638485	-0.007984	-0.769013	-7.969092	79.260465	168.951566
36250		-0.029726	0.638512	-0.007933	-0.768997	-7.948982	79.264829	168.985805
36251		-0.029601	0.638546	-0.007905	-0.768973	-7.918232	79.270773	169.029024
36252		-0.029477	0.638618	-0.007865	-0.768919	-7.897643	79.282058	169.062976
36253		-0.029360	0.638680	-0.007824	-0.768872	-7.879580	79.291745	169.093886
36254		-0.029270	0.638734	-0.007799	-0.768831	-7.862958	79.300231	169.119869
36255		-0.029188	0.638755	-0.007795	-0.768817	-7.835188	79.304153	169.154709
36256		-0.029107	0.638760	-0.007776	-0.768816	-7.813131	79.305421	169.184911
36257		-0.029063	0.638763	-0.007801	-0.768815	-7.784635	79.306729	169.214907
36258		-0.029005	0.638757	-0.007796	-0.768822	-7.763884	79.306277	169.240827
36259		-0.028945	0.638741	-0.007780	-0.768838	-7.745656	79.304321	169.265216
36260		-0.028884	0.638684	-0.007770	-0.768887	-7.719314	79.296473	169.297304
36261		-0.028806	0.638632	-0.007785	-0.768934	-7.675135	79.289710	169.346637
36262		-0.028713	0.638593	-0.007793	-0.768969	-7.630295	79.285136	169.398296
36263		-0.028553	0.638530	-0.007769	-0.769028	-7.571233	79.277056	169.472422
36264		-0.028410	0.638463	-0.007797	-0.769089	-7.493535	79.268943	169.559432
36265		-0.028275	0.638388	-0.007848	-0.769155	-7.408289	79.259932	169.651557
36266		-0.028112	0.638267	-0.007880	-0.769261	-7.314937	79.244151	169.755475
36267		-0.027991	0.638136	-0.007899	-0.769374	-7.243347	79.226206	169.835340
36268		-0.027871	0.638028	-0.007890	-0.769468	-7.188146	79.211343	169.901040
36269		-0.027770	0.637912	-0.007857	-0.769568	-7.150573	79.194833	169.949445
36270		-0.027657	0.637807	-0.007802	-0.769660	-7.120490	79.179618	169.993167
36271		-0.027531	0.637690	-0.007692	-0.769763	-7.108895	79.162096	170.023930
36272		-0.027445	0.637573	-0.007622	-0.769863	-7.094870	79.144787	170.050654
36273		-0.027347	0.637458	-0.007558	-0.769962	-7.073225	79.128058	170.085372
36274		-0.027261	0.637321	-0.007507	-0.770080	-7.048431	79.107898	170.121306
36275		-0.027189	0.637199	-0.007458	-0.770183	-7.029210	79.090059	170.150272
36276		-0.027123	0.637077	-0.007428	-0.770287	-7.004155	79.072229	170.183177
36277		-0.027092	0.636952	-0.007461	-0.770391	-6.962821	79.054557	170.224293
36278		-0.027052	0.636833	-0.007460	-0.770491	-6.934305	79.037508	170.256151
36279		-0.027001	0.636734	-0.007472	-0.770574	-6.898521	79.023504	170.295045
36280		-0.026992	0.636638	-0.007500	-0.770654	-6.871591	79.009786	170.320399
36281		-0.027001	0.636540	-0.007541	-0.770734	-6.845086	78.995792	170.342739
36282		-0.027022	0.636456	-0.007579	-0.770802	-6.826363	78.983736	170.356651
36283		-0.027052	0.636393	-0.007605	-0.770853	-6.818906	78.974623	170.359549
36284		-0.027097	0.636327	-0.007646	-0.770905	-6.809811	78.964963	170.361651
36285		-0.027150	0.636264	-0.007639	-0.770956	-6.826126	78.955140	170.341577
36286		-0.027167	0.636178	-0.007633	-0.771026	-6.825748	78.942198	170.340992
36287		-0.027208	0.636073	-0.007612	-0.771112	-6.839404	78.926162	170.325694
36288		-0.027224	0.635967	-0.007602	-0.771199	-6.838260	78.910333	170.326316
36289		-0.027203	0.635835	-0.007555	-0.771308	-6.837121	78.890572	170.332943
36290		-0.027214	0.635675	-0.007520	-0.771440	-6.839508	78.866473	170.332448
36291		-0.027239	0.635544	-0.007494	-0.771548	-6.846536	78.846687	170.325384
36292		-0.027244	0.635416	-0.007493	-0.771653	-6.834557	78.827820	170.337069
36293		-0.027220	0.635303	-0.007471	-0.771747	-6.823707	78.811168	170.351602
36294		-0.027225	0.635165	-0.007484	-0.771860	-6.804469	78.791085	170.369304
36295		-0.027230	0.635067	-0.007492	-0.771940	-6.792231	78.776731	170.380465
36296		-0.027218	0.634980	-0.007472	-0.772013	-6.787243	78.763758	170.388042
36297		-0.027236	0.634904	-0.007453	-0.772075	-6.794072	78.752173	170.381223
36298		-0.027244	0.634826	-0.007395	-0.772140	-6.814834	78.739892	170.364558
36299		-0.027266	0.634759	-0.007334	-0.772194	-6.843196	78.729160	170.339297
36300		-0.027292	0.634709	-0.007270	-0.772235	-6.876335	78.720821	170.309292
36301		-0.027308	0.634678	-0.007211	-0.772261	-6.905016	78.715353	170.284123
36302		-0.027309	0.634658	-0.007104	-0.772277	-6.951385	78.711136	170.246350
36303		-0.027314	0.634651	-0.007016	-0.772284	-6.991909	78.708921	170.212587
36304		-0.027284	0.634671	-0.006908	-0.772270	-7.030964	78.710784	170.184772
36305		-0.027272	0.634708	-0.006819	-0.772240	-7.070338	78.715219	170.153598
36306		-0.027227	0.634741	-0.006737	-0.772216	-7.094402	78.719342	170.139929
36307		-0.027155	0.634776	-0.006647	-0.772191	-7.112066	78.723979	170.135484
36308		-0.027127	0.634790	-0.006575	-0.772180	-7.135694	78.725484	170.120008
36309		-0.027082	0.634787	-0.006514	-0.772185	-7.145872	78.724661	170.118446
36310		-0.027043	0.634788	-0.006459	-0.772186	-7.156239	78.724389	170.115698
36311		-0.027052	0.634793	-0.006442	-0.772182	-7.167424	78.724892	170.105159
36312		-0.027050	0.634814	-0.006411	-0.772164	-7.183360	78.727618	170.091950
36313		-0.027066	0.634875	-0.006398	-0.772114	-7.202096	78.736190	170.072983
36314		-0.027087	0.634941	-0.006410	-0.772059	-7.211885	78.745822	170.060509
36315		-0.027081	0.634992	-0.006380	-0.772018	-7.228792	78.752950	170.046520
36316		-0.027109	0.635031	-0.006418	-0.771984	-7.226457	78.759012	170.043554
36317		-0.027133	0.635088	-0.006455	-0.771936	-7.224888	78.767547	170.040130
36318		-0.027172	0.635127	-0.006492	-0.771903	-7.226878	78.773357	170.031969
36319		-0.027233	0.635132	-0.006519	-0.771896	-7.238411	78.773868	170.013282
36320		-0.027274	0.635145	-0.006526	-0.771883	-7.251959	78.775584	169.995874
36321		-0.027310	0.635160	-0.006527	-0.771870	-7.266373	78.777372	169.978365
36322		-0.027315	0.635172	-0.006515	-0.771860	-7.275141	78.778977	169.970186
36323		-0.027300	0.635188	-0.006471	-0.771848	-7.291115	78.780893	169.958997
36324		-0.027262	0.635206	-0.006410	-0.771835	-7.306460	78.783069	169.951752
36325		-0.027230	0.635238	-0.006358	-0.771810	-7.321738	78.787450	169.943382
36326		-0.027190	0.635281	-0.006265	-0.771777	-7.353543	78.792845	169.922320
36327		-0.027145	0.635330	-0.006121	-0.771739	-7.407326	78.798674	169.884039
36328		-0.027103	0.635401	-0.005985	-0.771683	-7.461448	78.807659	169.844387
36329		-0.027034	0.635466	-0.005802	-0.771633	-7.525795	78.815545	169.800585
36330		-0.026979	0.635532	-0.005635	-0.771583	-7.588022	78.823459	169.756460
36331		-0.026916	0.635588	-0.005485	-0.771540	-7.639028	78.830272	169.722849
36332		-0.026848	0.635590	-0.005342	-0.771541	-7.678559	78.829453	169.700525
36333		-0.026773	0.635599	-0.005211	-0.771537	-7.710808	78.829758	169.685055
36334		-0.026681	0.635575	-0.005079	-0.771561	-7.733252	78.825373	169.680754
36335		-0.026561	0.635590	-0.004968	-0.771554	-7.740430	78.827296	169.692406
36336		-0.026457	0.635627	-0.004917	-0.771527	-7.729156	78.833079	169.716388
36337		-0.026337	0.635678	-0.004852	-0.771490	-7.719815	78.840853	169.740724
36338		-0.026266	0.635741	-0.004850	-0.771440	-7.701863	78.850844	169.764628
36339		-0.026225	0.635813	-0.004867	-0.771382	-7.687074	78.862069	169.781462
36340		-0.026197	0.635887	-0.004897	-0.771322	-7.671592	78.873502	169.796789
36341		-0.026205	0.635976	-0.004963	-0.771248	-7.655456	78.887387	169.806955
36342		-0.026235	0.636045	-0.005024	-0.771189	-7.647697	78.898028	169.807289
36343		-0.026292	0.636115	-0.005108	-0.771129	-7.639184	78.908799	169.804345
36344		-0.026338	0.636168	-0.005156	-0.771084	-7.640780	78.916767	169.795080
36345		-0.026376	0.636216	-0.005209	-0.771042	-7.636694	78.924180	169.791842
36346		-0.026398	0.636263	-0.005250	-0.771002	-7.631979	78.931408	169.791387
36347		-0.026427	0.636303	-0.005311	-0.770969	-7.619890	78.937703	169.796179
36348		-0.026420	0.636343	-0.005340	-0.770935	-7.608709	78.944102	169.805583
36349		-0.026365	0.636360	-0.005342	-0.770923	-7.588795	78.947129	169.829850
36350		-0.026335	0.636396	-0.005374	-0.770894	-7.567117	78.953223	169.851330
36351		-0.026317	0.636412	-0.005404	-0.770881	-7.548843	78.956107	169.868672
36352		-0.026291	0.636413	-0.005443	-0.770881	-7.521261	78.956954	169.895122
36353		-0.026274	0.636420	-0.005474	-0.770876	-7.501748	78.958604	169.913536
36354		-0.026274	0.636446	-0.005525	-0.770854	-7.481407	78.963074	169.929807
36355		-0.026275	0.636475	-0.005539	-0.770830	-7.478371	78.967460	169.931550
36356		-0.026303	0.636522	-0.005586	-0.770789	-7.473691	78.974776	169.930167
36357		-0.026357	0.636583	-0.005637	-0.770737	-7.477316	78.983816	169.917971
36358		-0.026394	0.636629	-0.005650	-0.770698	-7.491199	78.990386	169.900080
36359		-0.026396	0.636682	-0.005640	-0.770654	-7.502852	78.998119	169.889099
36360		-0.026368	0.636721	-0.005621	-0.770623	-7.505347	79.003750	169.890438
36361		-0.026357	0.636762	-0.005595	-0.770589	-7.518330	79.009621	169.880469
36362		-0.026322	0.636803	-0.005558	-0.770557	-7.526562	79.015542	169.878047
36363		-0.026279	0.636798	-0.005509	-0.770563	-7.531883	79.014552	169.880262
36364		-0.026230	0.636784	-0.005472	-0.770576	-7.528727	79.012511	169.890499
36365		-0.026249	0.636771	-0.005493	-0.770586	-7.524943	79.010652	169.890968
36366		-0.026226	0.636743	-0.005514	-0.770610	-7.503045	79.007017	169.912963
36367		-0.026230	0.636724	-0.005531	-0.770625	-7.494331	79.004464	169.920024
36368		-0.026241	0.636746	-0.005594	-0.770607	-7.472479	79.008301	169.935855
36369		-0.026250	0.636770	-0.005683	-0.770586	-7.438177	79.012884	169.962201
36370		-0.026288	0.636803	-0.005784	-0.770556	-7.410173	79.018766	169.978920
36371		-0.026319	0.636851	-0.005851	-0.770516	-7.396796	79.026332	169.984309
36372		-0.026385	0.636925	-0.005918	-0.770452	-7.399633	79.037458	169.970678
36373		-0.026440	0.636998	-0.005955	-0.770388	-7.412098	79.048242	169.950676
36374		-0.026491	0.637054	-0.005986	-0.770341	-7.423843	79.056246	169.932368
36375		-0.026518	0.637126	-0.005986	-0.770280	-7.442681	79.066607	169.911294
36376		-0.026547	0.637217	-0.006005	-0.770203	-7.455832	79.080014	169.894281
36377		-0.026560	0.637346	-0.005985	-0.770096	-7.485914	79.098595	169.864811
36378		-0.026586	0.637497	-0.005988	-0.769971	-7.512014	79.120503	169.836422
36379		-0.026607	0.637665	-0.005971	-0.769831	-7.548435	79.144858	169.799663
36380		-0.026600	0.637820	-0.005925	-0.769703	-7.585965	79.167062	169.766478
36381		-0.026591	0.637966	-0.005869	-0.769583	-7.626029	79.187854	169.731784
36382		-0.026570	0.638083	-0.005816	-0.769487	-7.657335	79.204540	169.706573
36383		-0.026515	0.638164	-0.005719	-0.769422	-7.690734	79.215795	169.685576
36384		-0.026502	0.638209	-0.005680	-0.769386	-7.709940	79.222003	169.670600
36385		-0.026501	0.638203	-0.005646	-0.769391	-7.724580	79.220692	169.658852
36386		-0.026512	0.638160	-0.005608	-0.769427	-7.741108	79.213751	169.644445
36387		-0.026545	0.638091	-0.005556	-0.769483	-7.769229	79.202539	169.617840
36388		-0.026582	0.638008	-0.005514	-0.769551	-7.792741	79.189400	169.594697
36389		-0.026600	0.637947	-0.005478	-0.769601	-7.809090	79.179818	169.579801
36390		-0.026651	0.637891	-0.005448	-0.769646	-7.835591	79.170552	169.551598
36391		-0.026713	0.637844	-0.005434	-0.769683	-7.860361	79.162931	169.522896
36392		-0.026756	0.637823	-0.005425	-0.769699	-7.878490	79.159314	169.501969
36393		-0.026760	0.637822	-0.005383	-0.769700	-7.899009	79.158451	169.484516
36394		-0.026764	0.637794	-0.005386	-0.769723	-7.895872	79.154345	169.487121
36395		-0.026770	0.637778	-0.005415	-0.769736	-7.882797	79.152373	169.497302
36396		-0.026749	0.637749	-0.005460	-0.769761	-7.850335	79.148839	169.527864
36397		-0.026764	0.637721	-0.005512	-0.769783	-7.828403	79.145303	169.544370
36398		-0.026767	0.637711	-0.005569	-0.769791	-7.801768	79.144566	169.566003
36399		-0.026796	0.637725	-0.005641	-0.769777	-7.781446	79.147412	169.578207
36400		-0.026795	0.637766	-0.005675	-0.769743	-7.770366	79.153908	169.586620
36401		-0.026795	0.637848	-0.005726	-0.769675	-7.757021	79.166591	169.595797
36402		-0.026784	0.637954	-0.005799	-0.769587	-7.731790	79.183225	169.616041
36403		-0.026756	0.638090	-0.005888	-0.769474	-7.696621	79.204736	169.646224
36404		-0.026739	0.638268	-0.005980	-0.769326	-7.669085	79.232339	169.667719
36405		-0.026709	0.638469	-0.006081	-0.769160	-7.634785	79.263517	169.696332
36406		-0.026661	0.638689	-0.006183	-0.768979	-7.595410	79.297652	169.731392
36407		-0.026604	0.638904	-0.006311	-0.768800	-7.540171	79.331647	169.780943
36408		-0.026526	0.639106	-0.006405	-0.768635	-7.489983	79.363306	169.829886
36409		-0.026438	0.639293	-0.006505	-0.768481	-7.430978	79.393143	169.888021
36410		-0.026359	0.639449	-0.006616	-0.768353	-7.366108	79.418257	169.950362
36411		-0.026328	0.639592	-0.006732	-0.768234	-7.316112	79.441162	169.993498
36412		-0.026285	0.639710	-0.006825	-0.768136	-7.268899	79.460200	170.036637
36413		-0.026296	0.639840	-0.006899	-0.768028	-7.254008	79.480105	170.044611
36414		-0.026296	0.639970	-0.006951	-0.767918	-7.245165	79.500086	170.049300
36415		-0.026301	0.640082	-0.006991	-0.767824	-7.241240	79.517045	170.049536
36416		-0.026341	0.640155	-0.007016	-0.767762	-7.254233	79.527749	170.031316
36417		-0.026386	0.640220	-0.007018	-0.767706	-7.279669	79.536965	170.002068
36418		-0.026434	0.640257	-0.007021	-0.767673	-7.301567	79.542028	169.976037
36419		-0.026450	0.640244	-0.006973	-0.767684	-7.329465	79.539266	169.950768
36420		-0.026491	0.640230	-0.006939	-0.767695	-7.360653	79.536436	169.918935
36421		-0.026499	0.640228	-0.006890	-0.767696	-7.387132	79.535428	169.895875
36422		-0.026506	0.640221	-0.006845	-0.767702	-7.410452	79.533736	169.875603
36423		-0.026541	0.640230	-0.006808	-0.767694	-7.443284	79.534174	169.842897
36424		-0.026551	0.640250	-0.006776	-0.767678	-7.465072	79.536614	169.822953
36425		-0.026556	0.640296	-0.006742	-0.767640	-7.489423	79.542823	169.800960
36426		-0.026556	0.640330	-0.006716	-0.767611	-7.505826	79.547584	169.786668
36427		-0.026561	0.640357	-0.006696	-0.767589	-7.520920	79.551191	169.772859
36428		-0.026593	0.640369	-0.006665	-0.767578	-7.550287	79.552296	169.743436
36429		-0.026657	0.640382	-0.006680	-0.767565	-7.570254	79.553717	169.717017
36430		-0.026738	0.640401	-0.006698	-0.767546	-7.596582	79.555982	169.682549
36431		-0.026832	0.640461	-0.006700	-0.767492	-7.641153	79.563996	169.630181
36432		-0.026944	0.640542	-0.006699	-0.767421	-7.696979	79.574768	169.565335
36433		-0.027035	0.640647	-0.006659	-0.767331	-7.766641	79.588711	169.491602
36434		-0.027134	0.640756	-0.006615	-0.767236	-7.842104	79.603265	169.411710
36435		-0.027223	0.640895	-0.006573	-0.767117	-7.916209	79.622264	169.333826
36436		-0.027281	0.641031	-0.006494	-0.767002	-7.995854	79.640652	169.255894
36437		-0.027292	0.641153	-0.006401	-0.766901	-8.062111	79.657086	169.196388
36438		-0.027313	0.641245	-0.006307	-0.766824	-8.128170	79.669226	169.136295
36439		-0.027319	0.641323	-0.006229	-0.766759	-8.179388	79.679553	169.090950
36440		-0.027333	0.641393	-0.006139	-0.766701	-8.238029	79.688341	169.038532
36441		-0.027364	0.641444	-0.006038	-0.766658	-8.306891	79.694172	168.975297
36442		-0.027416	0.641481	-0.005952	-0.766626	-8.374944	79.697719	168.910083
36443		-0.027484	0.641511	-0.005859	-0.766599	-8.451918	79.700037	168.835138
36444		-0.027535	0.641528	-0.005768	-0.766584	-8.518707	79.700677	168.771628
36445		-0.027617	0.641537	-0.005719	-0.766573	-8.577751	79.700486	168.709879
36446		-0.027691	0.641543	-0.005642	-0.766566	-8.645790	79.699386	168.642135
36447		-0.027768	0.641565	-0.005594	-0.766545	-8.703253	79.701085	168.582235
36448		-0.027816	0.641575	-0.005557	-0.766535	-8.742398	79.701437	168.542180
36449		-0.027853	0.641578	-0.005511	-0.766532	-8.780010	79.700793	168.505320
36450		-0.027903	0.641587	-0.005497	-0.766523	-8.808548	79.701239	168.473872
36451		-0.027942	0.641620	-0.005472	-0.766494	-8.841614	79.705346	168.439732
36452		-0.028022	0.641667	-0.005446	-0.766452	-8.893297	79.710957	168.383620
36453		-0.028117	0.641729	-0.005471	-0.766396	-8.929304	79.719315	168.337833
36454		-0.028222	0.641796	-0.005459	-0.766337	-8.987684	79.727678	168.271918
36455		-0.028334	0.641888	-0.005487	-0.766255	-9.033680	79.740421	168.214525
36456		-0.028390	0.641979	-0.005487	-0.766177	-9.070396	79.753138	168.173286
36457		-0.028391	0.642074	-0.005435	-0.766098	-9.110027	79.766225	168.137881
36458		-0.028376	0.642136	-0.005418	-0.766047	-9.121781	79.775235	168.128795
36459		-0.028299	0.642197	-0.005364	-0.765998	-9.126063	79.784414	168.135111
36460		-0.028256	0.642272	-0.005339	-0.765937	-9.132122	79.795513	168.134679
36461		-0.028181	0.642333	-0.005277	-0.765889	-9.140997	79.804488	168.136902
36462		-0.028161	0.642385	-0.005269	-0.765846	-9.144303	79.812261	168.135923
36463		-0.028112	0.642439	-0.005223	-0.765804	-9.155170	79.819923	168.132789
36464		-0.028115	0.642479	-0.005229	-0.765769	-9.159671	79.825979	168.127636
36465		-0.028111	0.642527	-0.005223	-0.765730	-9.168255	79.832910	168.119830
36466		-0.028122	0.642545	-0.005214	-0.765714	-9.180337	79.835349	168.107588
36467		-0.028113	0.642538	-0.005185	-0.765721	-9.189287	79.833914	168.101654
36468		-0.028099	0.642520	-0.005169	-0.765736	-9.188704	79.831178	168.104703
36469		-0.028040	0.642523	-0.005156	-0.765736	-9.171140	79.832147	168.128189
36470		-0.028004	0.642497	-0.005155	-0.765759	-9.152716	79.828831	168.149583
36471		-0.027941	0.642485	-0.005157	-0.765771	-9.124179	79.827826	168.183041
36472		-0.027893	0.642494	-0.005196	-0.765766	-9.086850	79.830217	168.221145
36473		-0.027873	0.642507	-0.005235	-0.765755	-9.061017	79.832984	168.245447
36474		-0.027860	0.642537	-0.005274	-0.765730	-9.041453	79.838199	168.262891
36475		-0.027849	0.642581	-0.005285	-0.765693	-9.038138	79.845004	168.266236
36476		-0.027844	0.642652	-0.005314	-0.765633	-9.032560	79.855939	168.269916
36477		-0.027807	0.642730	-0.005343	-0.765569	-9.014922	79.868248	168.288176
36478		-0.027791	0.642798	-0.005385	-0.765512	-8.998149	79.879118	168.302843
36479		-0.027712	0.642896	-0.005400	-0.765433	-8.972918	79.894703	168.333400
36480		-0.027658	0.642997	-0.005438	-0.765349	-8.946949	79.910807	168.360651
36481		-0.027606	0.643095	-0.005499	-0.765269	-8.909663	79.926656	168.397214
36482		-0.027547	0.643203	-0.005541	-0.765180	-8.880864	79.943928	168.427428
36483		-0.027486	0.643332	-0.005593	-0.765074	-8.848773	79.964377	168.460330
36484		-0.027449	0.643453	-0.005617	-0.764973	-8.839853	79.983045	168.470319
36485		-0.027420	0.643574	-0.005616	-0.764872	-8.846699	80.001265	168.465956
36486		-0.027417	0.643704	-0.005634	-0.764762	-8.856320	80.020705	168.455108
36487		-0.027414	0.643823	-0.005624	-0.764662	-8.878362	80.038126	168.434200
36488		-0.027415	0.643930	-0.005622	-0.764572	-8.895698	80.053865	168.417021
36489		-0.027421	0.644024	-0.005610	-0.764493	-8.919009	80.067501	168.394223
36490		-0.027419	0.644101	-0.005608	-0.764428	-8.930880	80.078756	168.382632
36491		-0.027371	0.644173	-0.005555	-0.764370	-8.948367	80.089184	168.373459
36492		-0.027338	0.644230	-0.005535	-0.764323	-8.953208	80.097582	168.372900
36493		-0.027232	0.644272	-0.005421	-0.764292	-8.971907	80.103426	168.372153
36494		-0.027197	0.644319	-0.005382	-0.764254	-8.983732	80.110103	168.366294
36495		-0.027139	0.644326	-0.005338	-0.764251	-8.982555	80.111106	168.375870
36496		-0.027113	0.644318	-0.005307	-0.764259	-8.985578	80.109803	168.377428
36497		-0.027080	0.644300	-0.005295	-0.764275	-8.975268	80.107334	168.391401
36498		-0.027074	0.644287	-0.005304	-0.764286	-8.965892	80.105605	168.400515
36499		-0.027020	0.644269	-0.005267	-0.764303	-8.958637	80.103063	168.415111
36500		-0.027045	0.644281	-0.005293	-0.764292	-8.958383	80.104995	168.411266
36501		-0.027096	0.644277	-0.005314	-0.764294	-8.968536	80.104025	168.395227
36502		-0.027119	0.644268	-0.005325	-0.764300	-8.971201	80.102626	168.389824
36503		-0.027159	0.644291	-0.005328	-0.764280	-8.990684	80.105561	168.366848
36504		-0.027184	0.644324	-0.005334	-0.764251	-9.003033	80.110250	168.351958
36505		-0.027218	0.644370	-0.005344	-0.764210	-9.019903	80.116871	168.331647
36506		-0.027237	0.644414	-0.005341	-0.764173	-9.036136	80.123077	168.314085
36507		-0.027227	0.644480	-0.005325	-0.764118	-9.050490	80.132677	168.301900
36508		-0.027242	0.644545	-0.005331	-0.764062	-9.063675	80.142124	168.286921
36509		-0.027258	0.644600	-0.005323	-0.764015	-9.083845	80.149937	168.266150
36510		-0.027285	0.644652	-0.005333	-0.763970	-9.097928	80.157493	168.249080
36511		-0.027283	0.644735	-0.005315	-0.763900	-9.119305	80.169496	168.229293
36512		-0.027309	0.644808	-0.005307	-0.763838	-9.146170	80.179801	168.200998
36513		-0.027331	0.644877	-0.005283	-0.763779	-9.179003	80.189378	168.168358
36514		-0.027375	0.644976	-0.005258	-0.763694	-9.225992	80.203030	168.119887
36515		-0.027442	0.645084	-0.005252	-0.763601	-9.275597	80.218030	168.065359
36516		-0.027480	0.645199	-0.005215	-0.763502	-9.328888	80.233986	168.011958
36517		-0.027501	0.645322	-0.005159	-0.763398	-9.386440	80.250907	167.957271
36518		-0.027517	0.645444	-0.005122	-0.763294	-9.432236	80.268224	167.913267
36519		-0.027465	0.645573	-0.005041	-0.763188	-9.472144	80.286542	167.884197
36520		-0.027464	0.645683	-0.005027	-0.763095	-9.497617	80.302577	167.859967
36521		-0.027453	0.645803	-0.004999	-0.762994	-9.527190	80.319977	167.833614
36522		-0.027458	0.645918	-0.004977	-0.762897	-9.559748	80.336429	167.802482
36523		-0.027436	0.646050	-0.004908	-0.762786	-9.607414	80.355148	167.762213
36524		-0.027464	0.646191	-0.004875	-0.762666	-9.660978	80.375005	167.709126
36525		-0.027478	0.646309	-0.004824	-0.762565	-9.713604	80.391490	167.659551
36526		-0.027515	0.646422	-0.004777	-0.762469	-9.773180	80.406901	167.600783
36527		-0.027558	0.646534	-0.004735	-0.762373	-9.832875	80.422178	167.541123
36528		-0.027571	0.646652	-0.004677	-0.762272	-9.889470	80.438488	167.488156
36529		-0.027571	0.646794	-0.004595	-0.762152	-9.956786	80.458089	167.427576
36530		-0.027559	0.646961	-0.004526	-0.762011	-10.016325	80.481738	167.374654
36531		-0.027543	0.647129	-0.004444	-0.761870	-10.081864	80.505259	167.317124
36532		-0.027503	0.647334	-0.004346	-0.761698	-10.151624	80.534502	167.258644
36533		-0.027455	0.647541	-0.004263	-0.761524	-10.211307	80.564192	167.209725
36534		-0.027413	0.647744	-0.004155	-0.761353	-10.286481	80.592934	167.146744
36535		-0.027377	0.647919	-0.004019	-0.761207	-10.373735	80.616859	167.073518
36536		-0.027359	0.648087	-0.003872	-0.761065	-10.474529	80.639483	166.986234
36537		-0.027353	0.648282	-0.003679	-0.760900	-10.610041	80.665014	166.866859
36538		-0.027386	0.648526	-0.003472	-0.760692	-10.781337	80.696872	166.709817
36539		-0.027438	0.648851	-0.003279	-0.760414	-10.970103	80.740598	166.532642
36540		-0.027481	0.649257	-0.003066	-0.760066	-11.184220	80.796039	166.332436
36541		-0.027487	0.649759	-0.002875	-0.759638	-11.391279	80.866402	166.140518
36542		-0.027478	0.650367	-0.002703	-0.759119	-11.607165	80.952815	165.939444
36543		-0.027441	0.651108	-0.002574	-0.758484	-11.819108	81.060176	165.741201
36544		-0.027371	0.651940	-0.002436	-0.757773	-12.046197	81.180997	165.531281
36545		-0.027259	0.652831	-0.002287	-0.757010	-12.279059	81.311111	165.319730
36546		-0.027141	0.653778	-0.002143	-0.756197	-12.526599	81.449615	165.093847
36547		-0.027015	0.654780	-0.001987	-0.755334	-12.798729	81.596141	164.844730
36548		-0.026910	0.655864	-0.001879	-0.754397	-13.084246	81.755384	164.576837
36549		-0.026828	0.657013	-0.001760	-0.753400	-13.417341	81.923446	164.260360
36550		-0.026811	0.658164	-0.001697	-0.752395	-13.765480	82.091757	163.918883
36551		-0.026756	0.659361	-0.001624	-0.751349	-14.128491	82.267312	163.566490
36552		-0.026658	0.660604	-0.001504	-0.750260	-14.528805	82.449359	163.184130
36553		-0.026443	0.661864	-0.001270	-0.749156	-14.961247	82.633577	162.788359
36554		-0.026191	0.663083	-0.001058	-0.748087	-15.365117	82.812833	162.422450
36555		-0.025841	0.664226	-0.000744	-0.747085	-15.771558	82.980471	162.070094
36556		-0.025513	0.665337	-0.000437	-0.746107	-16.193779	83.143045	161.699629
36557		-0.025157	0.666402	-0.000097	-0.745168	-16.624432	83.298683	161.325689
36558		-0.024754	0.667445	0.000258	-0.744247	-17.044672	83.451582	160.967162
36559		-0.024342	0.668458	0.000618	-0.743351	-17.468605	83.600053	160.605995
36560		-0.023933	0.669425	0.000978	-0.742493	-17.894499	83.741683	160.242600
36561		-0.023522	0.670379	0.001363	-0.741645	-18.349277	83.880544	159.852540
36562		-0.023159	0.671303	0.001700	-0.740819	-18.806611	84.015181	159.452126
36563		-0.022828	0.672247	0.002052	-0.739972	-19.328534	84.151256	158.985741
36564		-0.022511	0.673180	0.002407	-0.739132	-19.881864	84.284887	158.487105
36565		-0.022186	0.674066	0.002768	-0.738333	-20.432901	84.411571	157.991716
36566		-0.021884	0.674879	0.003113	-0.737597	-20.969123	84.527159	157.508102
36567		-0.021559	0.675640	0.003427	-0.736908	-21.451153	84.636644	157.078034
36568		-0.021241	0.676457	0.003695	-0.736167	-21.954594	84.755032	156.622120
36569		-0.020957	0.677384	0.004048	-0.735320	-22.659018	84.885250	155.969479
36570		-0.020642	0.678153	0.004388	-0.734617	-23.248466	84.993801	155.433195
36571		-0.020282	0.678950	0.004733	-0.733889	-23.850494	85.107153	154.888415
36572		-0.019931	0.679882	0.004999	-0.733033	-24.522232	85.241680	154.266766
36573		-0.019513	0.680807	0.005325	-0.732183	-25.226436	85.374879	153.623044
36574		-0.019086	0.681684	0.005643	-0.731376	-25.912023	85.501360	152.997872
36575		-0.018600	0.682617	0.006014	-0.730515	-26.687979	85.635370	152.291466
36576		-0.018085	0.683641	0.006338	-0.729567	-27.527631	85.784296	151.519897
36577		-0.017507	0.684688	0.006713	-0.728595	-28.444428	85.936072	150.680423
36578		-0.016889	0.685764	0.007056	-0.727594	-29.389005	86.093804	149.813766
36579		-0.016214	0.686989	0.007439	-0.726449	-30.583393	86.271594	148.705217
36580		-0.015519	0.688391	0.007774	-0.725132	-32.061112	86.474478	147.311022
36581		-0.014739	0.689879	0.008171	-0.723729	-33.824521	86.687589	145.643078
36582		-0.013945	0.691436	0.008562	-0.722252	-35.923940	86.907570	143.639721
36583		-0.013124	0.693046	0.009003	-0.720717	-38.479581	87.128884	141.186366
36584		-0.012282	0.694674	0.009493	-0.719157	-41.537717	87.344877	138.236230
36585		-0.011390	0.696311	0.010085	-0.717579	-45.225053	87.550823	134.669142
36586		-0.010494	0.698006	0.010690	-0.715935	-49.766561	87.751065	130.249330
36587		-0.009508	0.699799	0.011277	-0.714187	-55.379598	87.951571	124.763836
36588		-0.008504	0.701816	0.011763	-0.712210	-62.980479	88.154343	117.283614
36589		-0.007410	0.704144	0.012216	-0.709913	-73.815254	88.342368	106.574206
36590		-0.006332	0.706592	0.012556	-0.707481	-87.558358	88.467772	92.946009
36591		-0.005154	0.709055	0.012951	-0.705015	-102.894933	88.496894	77.736886
36592		-0.003987	0.711524	0.013276	-0.702525	-117.911235	88.422490	62.841473
36593		-0.002748	0.713905	0.013679	-0.700103	-130.478550	88.261380	50.407298
36594		-0.001557	0.716109	0.014093	-0.697844	-139.916470	88.050972	41.099528
36595		-0.000319	0.718228	0.014590	-0.695655	-147.134096	87.807920	34.022478
36596		0.000888	0.720346	0.015041	-0.693451	-152.890822	87.537159	28.400174
36597		0.002112	0.722483	0.015486	-0.691212	-157.557525	87.243943	23.868802
36598		0.003259	0.724575	0.015811	-0.689007	-161.335939	86.943405	20.209899
36599		0.004432	0.726491	0.016109	-0.686973	-164.370194	86.660640	17.294958
36600		0.005524	0.728166	0.016255	-0.685186	-166.864310	86.409899	14.901366
36601		0.006605	0.729733	0.016414	-0.683503	-168.954544	86.169997	12.911748
36602		0.007557	0.731229	0.016482	-0.681891	-170.720586	85.936552	11.228573
36603		0.008453	0.732587	0.016592	-0.680418	-172.148116	85.720709	9.882844
36604		0.009234	0.733889	0.016664	-0.679002	-173.341222	85.510936	8.758955
36605		0.009994	0.735128	0.016821	-0.677646	-174.314448	85.308247	7.860336
36606		0.010653	0.736240	0.016949	-0.676424	-175.110878	85.124958	7.127852
36607		0.011279	0.737238	0.017120	-0.675322	-175.762877	84.959173	6.540684
36608		0.011791	0.738144	0.017208	-0.674321	-176.324296	84.808146	6.028031
36609		0.012305	0.738927	0.017333	-0.673450	-176.810545	84.677027	5.593721
36610		0.012725	0.739640	0.017309	-0.672659	-177.302760	84.557886	5.133751
36611		0.013106	0.740329	0.017215	-0.671896	-177.793887	84.442846	4.666049
36612		0.013439	0.741067	0.017044	-0.671080	-178.288039	84.319191	4.185178
36613		0.013735	0.741767	0.016887	-0.670305	-178.717186	84.201455	3.767414
36614		0.013995	0.742456	0.016724	-0.669540	-179.103654	84.084969	3.388981
36615		0.014250	0.743113	0.016648	-0.668807	-179.405655	83.973258	3.101625
36616		0.014443	0.743677	0.016585	-0.668178	-179.634254	83.877056	2.883681
36617		0.014639	0.744097	0.016596	-0.667705	-179.799868	83.805041	2.734917
36618		0.014820	0.744400	0.016611	-0.667363	-179.943695	83.753048	2.607118
36619		0.015034	0.744562	0.016621	-0.667177	179.890702	83.725203	2.459739
36620		0.015240	0.744582	0.016544	-0.667152	179.675109	83.722012	2.254670
36621		0.015449	0.744501	0.016418	-0.667241	179.425198	83.736178	2.011411
36622		0.015650	0.744259	0.016243	-0.667511	179.148765	83.778001	1.736997
36623		0.015810	0.743857	0.016110	-0.667958	178.931425	83.847033	1.521853
36624		0.015923	0.743367	0.015985	-0.668503	178.753137	83.931009	1.342442
36625		0.015995	0.742797	0.015962	-0.669135	178.678347	84.028523	1.271497
36626		0.016023	0.742140	0.016016	-0.669862	178.694898	84.140835	1.294600
36627		0.016017	0.741407	0.016195	-0.670668	178.837515	84.265719	1.451119
36628		0.015986	0.740658	0.016447	-0.671490	179.066637	84.393065	1.698026
36629		0.015979	0.739874	0.016752	-0.672347	179.328665	84.526011	1.984064
36630		0.015959	0.739132	0.017041	-0.673156	179.600822	84.651476	2.277944
36631		0.016010	0.738502	0.017290	-0.673839	179.783681	84.757630	2.485026
36632		0.016082	0.737934	0.017442	-0.674455	179.867924	84.853501	2.587320
36633		0.016167	0.737478	0.017517	-0.674951	179.870439	84.930671	2.602786
36634		0.016242	0.737071	0.017510	-0.675393	179.808915	84.999746	2.546614
36635		0.016315	0.736700	0.017499	-0.675797	179.742897	85.062663	2.485626
36636		0.016349	0.736419	0.017468	-0.676102	179.691596	85.110308	2.434549
36637		0.016362	0.736214	0.017487	-0.676325	179.702654	85.145007	2.448119
36638		0.016354	0.736015	0.017470	-0.676543	179.703391	85.178804	2.446782
36639		0.016331	0.735820	0.017487	-0.676755	179.749210	85.211766	2.492064
36640		0.016283	0.735652	0.017441	-0.676940	179.761750	85.240356	2.496946
36641		0.016241	0.735512	0.017387	-0.677094	179.759975	85.264211	2.487420
36642		0.016180	0.735420	0.017283	-0.677198	179.728579	85.280156	2.442597
36643		0.016144	0.735418	0.017146	-0.677204	179.636148	85.280973	2.336185
36644		0.016107	0.735463	0.016984	-0.677161	179.520366	85.273969	2.204243
36645		0.016074	0.735621	0.016860	-0.676992	179.431743	85.247581	2.102873
36646		0.016034	0.735843	0.016806	-0.676754	179.416826	85.210260	2.080294
36647		0.016013	0.735897	0.016762	-0.676696	179.395644	85.201244	2.053920
36648		0.015989	0.735786	0.016681	-0.676820	179.347346	85.220363	1.997117
36649		0.015924	0.735610	0.016605	-0.677014	179.346891	85.250398	1.985229
36650		0.015831	0.735359	0.016562	-0.677290	179.408011	85.293075	2.035183
36651		0.015732	0.735092	0.016542	-0.677583	179.498523	85.338424	2.116034
36652		0.015618	0.734799	0.016619	-0.677901	179.700601	85.387722	2.315006
36653		0.015528	0.734486	0.016796	-0.678239	179.979688	85.440022	2.601157
36654		0.015472	0.734254	0.017006	-0.678486	-179.740841	85.478354	2.893098
36655		0.015414	0.734087	0.017266	-0.678661	-179.411411	85.505191	3.238897
36656		0.015399	0.733866	0.017456	-0.678895	-179.189720	85.541529	3.474765
36657		0.015413	0.733658	0.017564	-0.679117	-179.079263	85.576143	3.595029
36658		0.015456	0.733424	0.017586	-0.679368	-179.083266	85.615386	3.596271
36659		0.015586	0.733020	0.017550	-0.679802	-179.230184	85.683923	3.456997
36660		0.015840	0.732437	0.017571	-0.680424	-179.447999	85.782127	3.261314
36661		0.016240	0.731862	0.017719	-0.681029	-179.710142	85.878450	3.043590
36662		0.016803	0.731284	0.018026	-0.681627	179.999588	85.974299	2.823755
36663		0.017537	0.730729	0.018514	-0.682192	179.690811	86.065538	2.614019
36664		0.018430	0.730158	0.019095	-0.682762	179.283018	86.158469	2.325712
36665		0.019459	0.729464	0.019601	-0.683461	178.593122	86.271820	1.760112
36666		0.020555	0.728666	0.019910	-0.684271	177.527815	86.401764	0.808712
36667		0.021640	0.727908	0.019984	-0.685042	176.099712	86.523536	-0.525517
36668		0.022680	0.727200	0.019889	-0.685762	174.420118	86.634220	-2.128558
36669		0.023576	0.726655	0.019752	-0.686314	172.827771	86.716150	-3.659408
36670		0.024325	0.726482	0.019582	-0.686476	171.458687	86.735266	-4.981643
36671		0.024939	0.726586	0.019515	-0.686345	170.520991	86.709363	-5.874915
36672		0.025421	0.726672	0.019578	-0.686235	169.953665	86.688903	-6.398053
36673		0.025790	0.726785	0.019716	-0.686097	169.664470	86.666068	-6.646063
36674		0.026035	0.726789	0.019772	-0.686083	169.396229	86.662350	-6.889852
36675		0.026228	0.726552	0.019661	-0.686330	168.867355	86.697265	-7.412182
36676		0.026312	0.726325	0.019333	-0.686576	168.190936	86.729476	-8.108369
36677		0.026316	0.726221	0.018823	-0.686699	167.435299	86.740122	-8.905092
36678		0.026234	0.726124	0.018243	-0.686821	166.704095	86.749741	-9.689937
36679		0.026141	0.726133	0.017692	-0.686829	166.090488	86.742047	-10.355766
36680		0.026051	0.726301	0.017279	-0.686665	165.763906	86.710215	-10.723121
36681		0.026002	0.726519	0.016998	-0.686444	165.593460	86.671351	-10.920295
36682		0.025989	0.726790	0.016832	-0.686161	165.563161	86.624800	-10.965078
36683		0.026047	0.726983	0.016724	-0.685957	165.462945	86.590451	-11.069284
36684		0.026120	0.727044	0.016561	-0.685894	165.191520	86.576457	-11.347993
36685		0.026261	0.727030	0.016342	-0.685909	164.711472	86.571915	-11.834441
36686		0.026383	0.727039	0.015985	-0.685903	164.097148	86.561419	-12.467850
36687		0.026506	0.727111	0.015572	-0.685831	163.458937	86.539285	-13.129551
36688		0.026608	0.727203	0.015154	-0.685739	162.865006	86.513889	-13.749039
36689		0.026732	0.727312	0.014850	-0.685625	162.405453	86.487055	-14.223191
36690		0.026857	0.727475	0.014647	-0.685452	162.115781	86.453549	-14.519165
36691		0.027019	0.727681	0.014575	-0.685228	161.976701	86.414769	-14.650923
36692		0.027209	0.727909	0.014620	-0.684978	161.961851	86.374315	-14.646620
36693		0.027419	0.728144	0.014762	-0.684716	162.041210	86.334047	-14.538661
36694		0.027675	0.728387	0.014979	-0.684443	162.157010	86.293011	-14.384472
36695		0.027960	0.728614	0.015182	-0.684186	162.204915	86.253442	-14.296999
36696		0.028262	0.728860	0.015358	-0.683906	162.215304	86.209638	-14.247743
36697		0.028556	0.729096	0.015501	-0.683640	162.189280	86.167170	-14.238297
36698		0.028826	0.729266	0.015568	-0.683446	162.062031	86.134230	-14.338099
36699		0.029054	0.729385	0.015576	-0.683308	161.885208	86.109255	-14.495793
36700		0.029194	0.729432	0.015561	-0.683252	161.738174	86.097699	-14.632622
36701		0.029306	0.729416	0.015498	-0.683266	161.526246	86.095974	-14.840669
36702		0.029342	0.729356	0.015412	-0.683331	161.345308	86.102858	-15.025646
36703		0.029299	0.729261	0.015289	-0.683438	161.191786	86.116629	-15.192625
36704		0.029236	0.729127	0.015174	-0.683585	161.039622	86.137165	-15.359275
36705		0.029153	0.729027	0.015071	-0.683698	160.948732	86.153131	-15.465239
36706		0.029051	0.728990	0.014959	-0.683744	160.915296	86.159368	-15.516070
36707		0.028971	0.729015	0.014893	-0.683722	160.954813	86.156100	-15.488334
36708		0.028855	0.729130	0.014834	-0.683606	161.109832	86.139588	-15.347570
36709		0.028759	0.729356	0.014772	-0.683370	161.318052	86.104542	-15.152082
36710		0.028689	0.729653	0.014729	-0.683056	161.562886	86.057734	-14.916386
36711		0.028670	0.729988	0.014676	-0.682700	161.757577	86.003243	-14.727512
36712		0.028673	0.730321	0.014631	-0.682346	161.929729	85.948719	-14.558651
36713		0.028735	0.730692	0.014587	-0.681946	162.059146	85.886366	-14.427750
36714		0.028822	0.731109	0.014533	-0.681496	162.175536	85.815589	-14.308610
36715		0.028926	0.731518	0.014512	-0.681054	162.297189	85.746470	-14.180097
36716		0.029072	0.731890	0.014497	-0.680648	162.356656	85.682198	-14.109956
36717		0.029220	0.732295	0.014526	-0.680205	162.472278	85.613440	-13.979882
36718		0.029398	0.732694	0.014543	-0.679768	162.540316	85.544626	-13.895987
36719		0.029563	0.733075	0.014552	-0.679349	162.600745	85.478702	-13.821320
36720		0.029740	0.733431	0.014568	-0.678957	162.639645	85.416867	-13.766703
36721		0.029917	0.733744	0.014586	-0.678611	162.655140	85.361863	-13.735314
36722		0.030076	0.733992	0.014564	-0.678335	162.615907	85.316981	-13.763333
36723		0.030219	0.734164	0.014532	-0.678144	162.541153	85.284806	-13.829068
36724		0.030313	0.734278	0.014447	-0.678018	162.435656	85.262187	-13.933864
36725		0.030392	0.734343	0.014285	-0.677947	162.248765	85.246242	-14.127380
36726		0.030374	0.734395	0.014091	-0.677895	162.120140	85.234199	-14.273187
36727		0.030274	0.734417	0.013846	-0.677881	162.007296	85.228092	-14.414036
36728		0.030065	0.734402	0.013585	-0.677912	161.966229	85.230497	-14.493216
36729		0.029743	0.734409	0.013295	-0.677925	162.018979	85.231695	-14.490130
36730		0.029326	0.734401	0.013023	-0.677957	162.172781	85.238072	-14.392247
36731		0.028856	0.734367	0.012759	-0.678019	162.369443	85.250145	-14.255099
36732		0.028343	0.734326	0.012503	-0.678089	162.612645	85.264534	-14.074340
36733		0.027826	0.734261	0.012282	-0.678186	162.879581	85.283683	-13.867334
36734		0.027298	0.734162	0.012037	-0.678318	163.119590	85.307760	-13.690078
36735		0.026776	0.733997	0.011823	-0.678522	163.349188	85.343177	-13.520241
36736		0.026282	0.733734	0.011619	-0.678829	163.510587	85.393926	-13.415467
36737		0.025824	0.733399	0.011447	-0.679211	163.630155	85.456097	-13.347106
36738		0.025389	0.733026	0.011261	-0.679634	163.693060	85.523689	-13.334611
36739		0.024980	0.732590	0.011111	-0.680121	163.730126	85.601450	-13.342954
36740		0.024595	0.732098	0.010952	-0.680668	163.701677	85.687544	-13.415677
36741		0.024235	0.731633	0.010811	-0.681182	163.678402	85.768764	-13.479649
36742		0.023911	0.731182	0.010642	-0.681680	163.593390	85.846432	-13.604733
36743		0.023578	0.730717	0.010447	-0.682193	163.479167	85.925872	-13.761832
36744		0.023241	0.730275	0.010199	-0.682681	163.320030	86.000523	-13.968523
36745		0.022866	0.729890	0.009880	-0.683111	163.157241	86.065498	-14.187610
36746		0.022434	0.729508	0.009505	-0.683539	162.995597	86.129950	-14.414734
36747		0.021948	0.729084	0.009104	-0.684012	162.834901	86.201787	-14.647450
36748		0.021396	0.728687	0.008669	-0.684458	162.727856	86.270078	-14.834581
36749		0.020796	0.728279	0.008242	-0.684916	162.677466	86.341456	-14.968260
36750		0.020128	0.727795	0.007780	-0.685455	162.609202	86.425748	-15.128240
36751		0.019405	0.727278	0.007296	-0.686030	162.556792	86.516092	-15.278507
36752		0.018638	0.726741	0.006773	-0.686625	162.493181	86.609798	-15.446775
36753		0.017867	0.726133	0.006236	-0.687294	162.351927	86.714392	-15.694073
36754		0.017074	0.725460	0.005688	-0.688029	162.159316	86.829344	-15.995539
36755		0.016299	0.724759	0.005155	-0.688790	161.916552	86.948451	-16.344372
36756		0.015534	0.724090	0.004635	-0.689515	161.687508	87.062226	-16.677650
36757		0.014822	0.723466	0.004133	-0.690188	161.423906	87.167579	-17.039664
36758		0.014172	0.722868	0.003624	-0.690831	161.055832	87.266754	-17.501759
36759		0.013566	0.722254	0.003094	-0.691488	160.527734	87.366353	-18.121970
36760		0.013016	0.721615	0.002527	-0.692168	159.765138	87.466936	-18.975087
36761		0.012522	0.720947	0.001956	-0.692875	158.787350	87.569383	-20.039239
36762		0.012077	0.720247	0.001369	-0.693611	157.554007	87.673693	-21.356206
36763		0.011676	0.719569	0.000783	-0.694322	156.155787	87.771821	-22.834448
36764		0.011291	0.718901	0.000149	-0.695021	154.524399	87.864613	-24.548436
36765		0.010910	0.718283	-0.000479	-0.695665	152.850709	87.947974	-26.303935
36766		0.010561	0.717752	-0.001160	-0.696218	151.059511	88.013352	-28.178591
36767		0.010223	0.717302	-0.001900	-0.696685	149.206541	88.061951	-30.118898
36768		0.009884	0.716857	-0.002686	-0.697145	147.181706	88.105580	-32.234940
36769		0.009546	0.716458	-0.003501	-0.697556	145.141568	88.138872	-34.368504
36770		0.009196	0.716105	-0.004366	-0.697919	143.090363	88.161684	-36.518259
36771		0.008854	0.715757	-0.005255	-0.698274	140.952461	88.179558	-38.755870
36772		0.008505	0.715379	-0.006119	-0.698658	138.730333	88.199960	-41.076253
36773		0.008169	0.715017	-0.006964	-0.699025	136.531569	88.215870	-43.370791
36774		0.007883	0.714698	-0.007808	-0.699346	134.370657	88.221178	-45.623316
36775		0.007606	0.714435	-0.008699	-0.699606	132.330788	88.214058	-47.757718
36776		0.007365	0.714271	-0.009679	-0.699763	130.498912	88.186292	-49.688579
36777		0.007140	0.714206	-0.010750	-0.699817	128.955875	88.139617	-51.336642
36778		0.006940	0.714218	-0.011891	-0.699788	127.664340	88.077587	-52.736894
36779		0.006735	0.714253	-0.013085	-0.699732	126.485380	88.009020	-54.029198
36780		0.006519	0.714284	-0.014250	-0.699680	125.427391	87.942622	-55.199200
36781		0.006295	0.714296	-0.015378	-0.699646	124.425982	87.880208	-56.310156
36782		0.006089	0.714290	-0.016446	-0.699630	123.467327	87.821496	-57.372087
36783		0.005864	0.714283	-0.017435	-0.699615	122.661919	87.769010	-58.275800
36784		0.005627	0.714279	-0.018381	-0.699597	121.964464	87.719514	-59.069188
36785		0.005392	0.714264	-0.019285	-0.699590	121.299825	87.673491	-59.826185
36786		0.005132	0.714293	-0.020183	-0.699537	120.847072	87.625581	-60.372737
36787		0.004880	0.714414	-0.021081	-0.699389	120.717015	87.569354	-60.596008
36788		0.004634	0.714579	-0.021962	-0.699195	120.747703	87.510185	-60.656719
36789		0.004407	0.714779	-0.022813	-0.698964	120.902973	87.448998	-60.588827
36790		0.004182	0.715020	-0.023597	-0.698693	121.232355	87.388860	-60.341207
36791		0.004005	0.715265	-0.024308	-0.698419	121.575330	87.330285	-60.070306
36792		0.003835	0.715479	-0.024933	-0.698179	121.875581	87.279717	-59.834471
36793		0.003679	0.715670	-0.025432	-0.697965	122.189329	87.238917	-59.573908
36794		0.003552	0.715843	-0.025791	-0.697776	122.521616	87.207571	-59.280964
36795		0.003456	0.716007	-0.026023	-0.697599	122.897617	87.183589	-58.931517
36796		0.003369	0.716192	-0.026166	-0.697404	123.385499	87.163402	-58.462350
36797		0.003328	0.716404	-0.026306	-0.697182	123.900604	87.137600	-57.961885
36798		0.003292	0.716629	-0.026447	-0.696945	124.439398	87.109902	-57.437445
36799		0.003294	0.716870	-0.026539	-0.696694	125.013695	87.081484	-56.870502
36800		0.003323	0.717101	-0.026632	-0.696452	125.524576	87.051687	-56.364786
36801		0.003389	0.717308	-0.026674	-0.696237	125.970559	87.024960	-55.916953
36802		0.003484	0.717466	-0.026684	-0.696073	126.281556	87.002984	-55.599058
36803		0.003611	0.717570	-0.026659	-0.695967	126.448723	86.986379	-55.419580
36804		0.003756	0.717629	-0.026601	-0.695907	126.510726	86.975013	-55.341075
36805		0.003923	0.717667	-0.026513	-0.695871	126.523533	86.966371	-55.307623
36806		0.004089	0.717701	-0.026376	-0.695839	126.567444	86.961282	-55.239204
36807		0.004287	0.717754	-0.026160	-0.695792	126.690970	86.957670	-55.082108
36808		0.004472	0.717802	-0.025908	-0.695751	126.843274	86.957870	-54.894304
36809		0.004683	0.717855	-0.025576	-0.695707	127.049953	86.961218	-54.643644
36810		0.004879	0.717969	-0.025229	-0.695600	127.435460	86.960372	-54.214091
36811		0.005096	0.718125	-0.024866	-0.695451	127.917594	86.955059	-53.684889
36812		0.005328	0.718256	-0.024481	-0.695328	128.342061	86.952439	-53.210458
36813		0.005565	0.718322	-0.024058	-0.695272	128.636734	86.958245	-52.862299
36814		0.005825	0.718408	-0.023661	-0.695196	128.933601	86.958952	-52.512106
36815		0.006085	0.718500	-0.023271	-0.695111	129.241768	86.958350	-52.151345
36816		0.006351	0.718570	-0.022885	-0.695049	129.487949	86.959162	-51.852309
36817		0.006628	0.718555	-0.022475	-0.695076	129.537231	86.969722	-51.747322
36818		0.006872	0.718472	-0.022016	-0.695174	129.499369	86.992460	-51.728188
36819		0.007111	0.718404	-0.021492	-0.695258	129.563611	87.018214	-51.602082
36820		0.007388	0.718374	-0.020895	-0.695304	129.751032	87.042176	-51.343827
36821		0.007717	0.718355	-0.020182	-0.695341	130.024860	87.069143	-50.985495
36822		0.008156	0.718267	-0.019328	-0.695451	130.150995	87.105267	-50.754583
36823		0.008716	0.718128	-0.018268	-0.695616	130.223657	87.152219	-50.550559
36824		0.009422	0.718039	-0.017090	-0.695729	130.392007	87.192058	-50.229524
36825		0.010257	0.717858	-0.015895	-0.695932	130.204918	87.234487	-50.252076
36826		0.011202	0.717577	-0.014778	-0.696232	129.550297	87.275185	-50.739540
36827		0.012204	0.717341	-0.013786	-0.696479	128.818940	87.299261	-51.309279
36828		0.013204	0.717107	-0.012974	-0.696717	127.904907	87.311117	-52.076446
36829		0.014167	0.716820	-0.012352	-0.697005	126.692171	87.317354	-53.160741
36830		0.015057	0.716536	-0.011868	-0.697287	125.432775	87.317913	-54.308759
36831		0.015849	0.716256	-0.011474	-0.697563	124.201732	87.317292	-55.443658
36832		0.016519	0.715977	-0.011124	-0.697840	123.052170	87.320799	-56.510512
36833		0.017077	0.715715	-0.010774	-0.698100	122.057007	87.329568	-57.432141
36834		0.017503	0.715460	-0.010425	-0.698357	121.195283	87.346189	-58.231086
36835		0.017839	0.715224	-0.010038	-0.698596	120.498844	87.369547	-58.868877
36836		0.018092	0.715025	-0.009677	-0.698797	119.961199	87.393689	-59.356770
36837		0.018272	0.714843	-0.009269	-0.698984	119.569910	87.424642	-59.700440
36838		0.018412	0.714688	-0.008837	-0.699145	119.311258	87.457926	-59.912683
36839		0.018534	0.714548	-0.008380	-0.699291	119.137435	87.492937	-60.039553
36840		0.018608	0.714457	-0.007922	-0.699387	119.165587	87.527545	-59.968335
36841		0.018702	0.714404	-0.007449	-0.699444	119.316035	87.558663	-59.771947
36842		0.018763	0.714363	-0.006997	-0.699488	119.526643	87.589489	-59.519740
36843		0.018872	0.714346	-0.006556	-0.699508	119.766368	87.614364	-59.235467
36844		0.018967	0.714367	-0.006159	-0.699487	120.116790	87.633614	-58.845191
36845		0.019103	0.714379	-0.005809	-0.699475	120.352345	87.647607	-58.570182
36846		0.019240	0.714378	-0.005492	-0.699473	120.518842	87.660079	-58.366927
36847		0.019374	0.714357	-0.005177	-0.699494	120.614274	87.674336	-58.235082
36848		0.019480	0.714316	-0.004886	-0.699535	120.650095	87.690612	-58.167138
36849		0.019570	0.714295	-0.004600	-0.699556	120.767834	87.706040	-58.018897
36850		0.019622	0.714275	-0.004313	-0.699577	120.932041	87.723911	-57.827243
36851		0.019629	0.714276	-0.004037	-0.699577	121.213576	87.742453	-57.522797
36852		0.019603	0.714269	-0.003802	-0.699586	121.461898	87.761049	-57.257523
36853		0.019550	0.714253	-0.003595	-0.699605	121.683927	87.780469	-57.023007
36854		0.019482	0.714205	-0.003385	-0.699657	121.812725	87.803790	-56.882747
36855		0.019402	0.714110	-0.003124	-0.699758	121.842607	87.835711	-56.838131
36856		0.019331	0.713943	-0.002828	-0.699931	121.639323	87.875570	-57.023201
36857		0.019267	0.713743	-0.002485	-0.700138	121.344633	87.921008	-57.295307
36858		0.019213	0.713500	-0.002137	-0.700389	120.861052	87.969736	-57.755069
36859		0.019180	0.713256	-0.001773	-0.700639	120.347791	88.018122	-58.241514
36860		0.019151	0.713050	-0.001417	-0.700850	119.956421	88.062232	-58.606397
36861		0.019134	0.712947	-0.001114	-0.700956	119.904565	88.093118	-58.634985
36862		0.019089	0.712946	-0.000830	-0.700959	120.299073	88.116214	-58.221156
36863		0.019041	0.713013	-0.000581	-0.700892	120.955186	88.131152	-57.548737
36864		0.018957	0.713060	-0.000296	-0.700847	121.632693	88.152469	-56.855043
36865		0.018835	0.713015	0.000034	-0.700896	122.041279	88.187486	-56.429559
36866		0.018681	0.712862	0.000381	-0.701056	122.055972	88.235300	-56.399206
36867		0.018504	0.712626	0.000762	-0.701300	121.771079	88.294401	-56.667625
36868		0.018305	0.712324	0.001113	-0.701611	121.142074	88.358556	-57.284364
36869		0.018100	0.712051	0.001409	-0.701893	120.534069	88.416714	-57.884918
36870		0.017873	0.711913	0.001615	-0.702039	120.480914	88.458655	-57.939829
36871		0.017603	0.711848	0.001799	-0.702110	120.854163	88.495785	-57.573515
36872		0.017303	0.711694	0.001986	-0.702274	120.809551	88.542895	-57.627279
36873		0.016985	0.711462	0.002204	-0.702516	120.404328	88.600040	-58.040696
36874		0.016629	0.711227	0.002441	-0.702762	120.048292	88.661187	-58.406344
36875		0.016275	0.710940	0.002688	-0.703059	119.349866	88.727276	-59.113437
36876		0.015856	0.710622	0.002935	-0.703389	118.477518	88.800111	-59.999794
36877		0.015407	0.710422	0.003168	-0.703600	118.379310	88.864623	-60.115498
36878		0.014929	0.710299	0.003352	-0.703734	118.814768	88.921599	-59.703845
36879		0.014437	0.710220	0.003490	-0.703823	119.570880	88.972620	-58.976381
36880		0.013890	0.709974	0.003787	-0.704080	119.542860	89.052201	-59.024708
36881		0.013316	0.709469	0.004290	-0.704597	117.645661	89.168890	-60.927673
36882		0.012752	0.708928	0.004946	-0.705149	115.115970	89.297292	-63.449961
36883		0.012208	0.708396	0.005668	-0.705687	111.776336	89.426377	-66.775131
36884		0.011704	0.707889	0.006374	-0.706198	106.875224	89.546872	-71.659828
36885		0.011261	0.707556	0.007012	-0.706533	102.800250	89.645855	-75.719129
36886		0.010815	0.707380	0.007602	-0.706710	101.023583	89.734098	-77.484056
36887		0.010441	0.707159	0.008163	-0.706930	94.987445	89.814476	-83.505008
36888		0.010093	0.706868	0.008700	-0.707220	75.054655	89.883524	-103.422508
36889		0.009795	0.706615	0.009287	-0.707470	29.952717	89.919411	-148.501048
36890		0.009528	0.706333	0.009952	-0.707746	-17.502531	89.880414	164.075942
36891		0.009325	0.706011	0.010666	-0.708059	-34.009145	89.801645	147.610753
36892		0.009156	0.705742	0.011392	-0.708319	-41.780918	89.723537	139.884109
36893		0.009043	0.705575	0.012081	-0.708475	-47.182184	89.659725	134.529511
36894		0.009015	0.705585	0.012664	-0.708454	-52.704538	89.623880	129.052152
36895		0.009000	0.705800	0.013143	-0.708232	-60.472221	89.610740	121.322046
36896		0.009024	0.706072	0.013571	-0.707952	-68.451302	89.601364	113.379598
36897		0.009075	0.706285	0.013939	-0.707732	-74.371844	89.588825	107.493033
36898		0.009152	0.706464	0.014262	-0.707546	-78.996701	89.576794	102.900630
36899		0.009224	0.706668	0.014538	-0.707336	-83.795252	89.566005	98.130275
36900		0.009289	0.706849	0.014767	-0.707149	-87.844381	89.555464	94.104969
36901		0.009337	0.707016	0.014919	-0.706979	-91.362482	89.547701	90.603093
36902		0.009334	0.707228	0.015018	-0.706764	-95.651733	89.537908	86.321627
36903		0.009298	0.707495	0.015072	-0.706497	-100.790081	89.525222	81.184692
36904		0.009240	0.707810	0.015099	-0.706181	-106.527711	89.507245	75.444533
36905		0.009159	0.708128	0.015139	-0.705862	-111.738171	89.481811	70.230796
36906		0.009064	0.708538	0.015191	-0.705451	-117.725259	89.444105	64.240221
36907		0.008967	0.709027	0.015245	-0.704960	-123.917744	89.393831	58.044219
36908		0.008861	0.709565	0.015351	-0.704417	-129.400454	89.328843	52.561575
36909		0.008787	0.710149	0.015486	-0.703826	-134.329894	89.253543	47.637082
36910		0.008696	0.710768	0.015603	-0.703199	-138.603802	89.169694	43.365242
36911		0.008636	0.711452	0.015727	-0.702505	-142.587978	89.074922	39.386249
36912		0.008612	0.712178	0.015776	-0.701769	-146.452039	88.976138	35.524280
36913		0.008600	0.712934	0.015766	-0.701001	-150.002062	88.872084	31.972438
36914		0.008588	0.713725	0.015689	-0.700198	-153.289321	88.762040	28.678031
36915		0.008611	0.714482	0.015554	-0.699428	-156.220769	88.656714	25.737506
36916		0.008626	0.715171	0.015376	-0.698727	-158.655223	88.559652	23.289879
36917		0.008656	0.715752	0.015156	-0.698136	-160.710476	88.478449	21.219216
36918		0.008680	0.716214	0.014917	-0.697667	-162.370377	88.414383	19.541895
36919		0.008688	0.716618	0.014679	-0.697257	-163.755038	88.357752	18.138639
36920		0.008678	0.716968	0.014406	-0.696903	-165.002071	88.309102	16.868662
36921		0.008643	0.717274	0.014124	-0.696595	-166.078960	88.266474	15.766076
36922		0.008553	0.717551	0.013809	-0.696316	-167.003959	88.227399	14.808301
36923		0.008432	0.717811	0.013518	-0.696056	-167.731873	88.189615	14.046954
36924		0.008237	0.718063	0.013194	-0.695805	-168.313332	88.152201	13.423488
36925		0.007983	0.718310	0.012883	-0.695558	-168.690432	88.114132	13.000555
36926		0.007698	0.718590	0.012612	-0.695277	-168.919703	88.069360	12.726226
36927		0.007391	0.718916	0.012380	-0.694948	-169.043521	88.016172	12.558830
36928		0.007035	0.719243	0.012134	-0.694617	-169.078355	87.962229	12.475145
36929		0.006652	0.719575	0.011866	-0.694281	-169.102435	87.907288	12.398377
36930		0.006239	0.719909	0.011542	-0.693944	-169.175876	87.852487	12.265168
36931		0.005793	0.720270	0.011182	-0.693580	-169.271635	87.793588	12.104138
36932		0.005266	0.720637	0.010830	-0.693208	-169.186101	87.732038	12.118387
36933		0.004671	0.720982	0.010513	-0.692858	-168.879476	87.672398	12.351138
36934		0.003989	0.721322	0.010330	-0.692512	-168.167051	87.609527	12.993429
36935		0.003250	0.721667	0.010269	-0.692157	-167.168810	87.541915	13.926857
36936		0.002483	0.722012	0.010270	-0.691799	-166.064369	87.471687	14.969222
36937		0.001688	0.722386	0.010317	-0.691411	-164.919724	87.394336	16.053359
36938		0.000861	0.722785	0.010357	-0.690995	-163.822350	87.311362	17.086867
36939		-0.000010	0.723175	0.010373	-0.690587	-162.747264	87.228431	18.092756
36940		-0.000877	0.723550	0.010378	-0.690194	-161.739424	87.147176	19.030644
36941		-0.001743	0.723878	0.010307	-0.689849	-160.847420	87.074636	19.846782
36942		-0.002653	0.724087	0.010245	-0.689627	-159.787868	87.018294	20.827527
36943		-0.003594	0.724141	0.010159	-0.689568	-158.573899	86.984704	21.958200
36944		-0.004576	0.724052	0.010105	-0.689657	-157.108672	86.969381	23.339484
36945		-0.005599	0.723860	0.010059	-0.689851	-155.459139	86.965898	24.902371
36946		-0.006646	0.723602	0.010024	-0.690113	-153.674222	86.968512	26.599606
36947		-0.007674	0.723311	0.010002	-0.690408	-151.848466	86.973195	28.340272
36948		-0.008715	0.723017	0.009998	-0.690703	-149.976558	86.973944	30.127390
36949		-0.009702	0.722751	0.010006	-0.690968	-148.211063	86.969379	31.813599
36950		-0.010630	0.722467	0.010032	-0.691251	-146.476196	86.966396	33.475322
36951		-0.011459	0.722155	0.010055	-0.691564	-144.826064	86.969312	35.060150
36952		-0.012208	0.721805	0.010096	-0.691915	-143.182503	86.977756	36.646320
36953		-0.012843	0.721377	0.010185	-0.692349	-141.465972	86.997309	38.318576
36954		-0.013394	0.720904	0.010285	-0.692829	-139.728767	87.023764	40.019265
36955		-0.013878	0.720434	0.010398	-0.693307	-138.034208	87.049934	41.683716
36956		-0.014295	0.719906	0.010533	-0.693845	-136.235892	87.083128	43.459142
36957		-0.014669	0.719286	0.010676	-0.694478	-134.223911	87.125946	45.452454
36958		-0.014990	0.718623	0.010838	-0.695154	-132.092041	87.171956	47.571431
36959		-0.015284	0.717912	0.011007	-0.695879	-129.791533	87.220212	49.861812
36960		-0.015545	0.717184	0.011199	-0.696620	-127.380622	87.266150	52.267168
36961		-0.015778	0.716513	0.011422	-0.697301	-125.058487	87.301448	54.588448
36962		-0.015956	0.715896	0.011689	-0.697927	-122.849576	87.328129	56.804569
36963		-0.016106	0.715311	0.011972	-0.698518	-120.714003	87.348738	58.950932
36964		-0.016205	0.714769	0.012294	-0.699065	-118.697257	87.363146	60.985791
36965		-0.016270	0.714282	0.012683	-0.699554	-116.817284	87.367659	62.892030
36966		-0.016290	0.713848	0.013170	-0.699987	-115.071113	87.361638	64.675990
36967		-0.016230	0.713426	0.013741	-0.700408	-113.377194	87.352041	66.421030
36968		-0.016120	0.713005	0.014433	-0.700825	-111.667258	87.334597	68.196057
36969		-0.015948	0.712623	0.015287	-0.701199	-110.063244	87.304838	69.883246
36970		-0.015693	0.712306	0.016286	-0.701504	-108.687945	87.264757	71.360095
36971		-0.015374	0.712060	0.017370	-0.701735	-107.582808	87.217696	72.578995
36972		-0.014931	0.711808	0.018502	-0.701972	-106.539505	87.175896	73.749880
36973		-0.014404	0.711624	0.019589	-0.702140	-105.799480	87.140107	74.620820
36974		-0.013777	0.711513	0.020654	-0.702234	-105.362505	87.110265	75.194858
36975		-0.013086	0.711399	0.021664	-0.702333	-104.969126	87.089652	75.726179
36976		-0.012341	0.711431	0.022616	-0.702284	-105.079502	87.071759	75.753316
36977		-0.011607	0.711562	0.023669	-0.702128	-105.462077	87.040892	75.515619
36978		-0.010788	0.711566	0.024780	-0.702099	-105.472525	87.017317	75.661640
36979		-0.009952	0.711613	0.025957	-0.702022	-105.603104	86.987991	75.694216
36980		-0.009104	0.711717	0.027189	-0.701881	-105.896978	86.952777	75.568957
36981		-0.008246	0.711844	0.028363	-0.701716	-106.280431	86.921868	75.350262
36982		-0.007346	0.712042	0.029529	-0.701477	-106.885744	86.891536	74.912472
36983		-0.006461	0.712278	0.030599	-0.701200	-107.620375	86.865431	74.336358
36984		-0.005561	0.712493	0.031626	-0.700944	-108.309685	86.844445	73.803230
36985		-0.004692	0.712642	0.032580	-0.700755	-108.819834	86.829605	73.440927
36986		-0.003854	0.712813	0.033457	-0.700545	-109.401556	86.817107	72.998208
36987		-0.003056	0.713023	0.034307	-0.700294	-110.080771	86.801232	72.452606
36988		-0.002317	0.713239	0.035153	-0.700035	-110.741800	86.780507	71.920156
36989		-0.001597	0.713471	0.036057	-0.699755	-111.412078	86.752416	71.381612
36990		-0.000953	0.713825	0.036901	-0.699351	-112.381968	86.715730	70.532399
36991		-0.000368	0.714189	0.037675	-0.698938	-113.357931	86.678547	69.666623
36992		0.000143	0.714482	0.038360	-0.698602	-114.125105	86.646138	68.996493
36993		0.000555	0.714751	0.038974	-0.698292	-114.794303	86.612799	68.410493
36994		0.000917	0.714958	0.039560	-0.698046	-115.277316	86.581544	68.004346
36995		0.001224	0.715082	0.040128	-0.697887	-115.521809	86.552949	67.830826
36996		0.001484	0.715186	0.040723	-0.697745	-115.675483	86.520069	67.746550
36997		0.001725	0.715392	0.041354	-0.697496	-116.050347	86.476135	67.442426
36998		0.001895	0.715735	0.042046	-0.697102	-116.676938	86.412798	66.885876
36999		0.002096	0.716184	0.042769	-0.696597	-117.532009	86.341434	66.105779
37000		0.002295	0.716648	0.043420	-0.696078	-118.425985	86.273410	65.280841
37001		0.002514	0.717154	0.044035	-0.695517	-119.411522	86.205473	64.363040
37002		0.002720	0.717656	0.044594	-0.694963	-120.373881	86.140013	63.462795
37003		0.002939	0.718155	0.045107	-0.694414	-121.328089	86.078053	62.568045
37004		0.003110	0.718685	0.045607	-0.693832	-122.295327	86.010079	61.655250
37005		0.003239	0.719235	0.046059	-0.693231	-123.268531	85.939840	60.729333
37006		0.003350	0.719782	0.046536	-0.692630	-124.181208	85.865585	59.864428
37007		0.003418	0.720337	0.047004	-0.692022	-125.053742	85.787556	59.035458
37008		0.003396	0.720874	0.047423	-0.691434	-125.830297	85.707466	58.291276
37009		0.003350	0.721378	0.047845	-0.690879	-126.505303	85.627897	57.646907
37010		0.003230	0.721846	0.048185	-0.690367	-127.085763	85.552038	57.084372
37011		0.003028	0.722326	0.048445	-0.689847	-127.656862	85.474578	56.518049
37012		0.002805	0.722768	0.048615	-0.689373	-128.176613	85.405296	55.994174
37013		0.002569	0.723219	0.048689	-0.688896	-128.735124	85.340358	55.422601
37014		0.002328	0.723708	0.048630	-0.688386	-129.405247	85.279835	54.728276
37015		0.002106	0.724208	0.048458	-0.687874	-130.142501	85.226489	53.959029
37016		0.001881	0.724658	0.048175	-0.687421	-130.842240	85.184573	53.218137
37017		0.001703	0.724968	0.047777	-0.687121	-131.407475	85.167201	52.606231
37018		0.001514	0.725239	0.047238	-0.686873	-131.977086	85.162162	51.977478
37019		0.001308	0.725560	0.046588	-0.686579	-132.666882	85.157286	51.218236
37020		0.001071	0.725836	0.045922	-0.686332	-133.278535	85.155701	50.533405
37021		0.000828	0.726067	0.045247	-0.686133	-133.825244	85.158674	49.912124
37022		0.000564	0.726303	0.044623	-0.685924	-134.337424	85.155999	49.327970
37023		0.000316	0.726506	0.044043	-0.685747	-134.787261	85.154840	48.810861
37024		0.000060	0.726626	0.043517	-0.685654	-135.081460	85.158995	48.453228
37025		-0.000174	0.726647	0.043086	-0.685658	-135.196274	85.169713	48.284405
37026		-0.000420	0.726572	0.042737	-0.685760	-135.116336	85.185649	48.316144
37027		-0.000639	0.726392	0.042514	-0.685965	-134.830204	85.207261	48.566327
37028		-0.000830	0.726134	0.042346	-0.686248	-134.415614	85.235809	48.951706
37029		-0.000992	0.725803	0.042252	-0.686603	-133.865210	85.269258	49.481397
37030		-0.001061	0.725419	0.042180	-0.687013	-133.278105	85.312495	50.057015
37031		-0.001058	0.724999	0.042134	-0.687459	-132.661768	85.361779	50.669720
37032		-0.001017	0.724539	0.042055	-0.687948	-132.012980	85.419347	51.315453
37033		-0.000920	0.724061	0.041979	-0.688456	-131.356856	85.481552	51.973144
37034		-0.000790	0.723552	0.041868	-0.688998	-130.674354	85.550710	52.657093
37035		-0.000653	0.723028	0.041731	-0.689557	-129.964442	85.622918	53.366926
37036		-0.000482	0.722494	0.041589	-0.690125	-129.241147	85.697788	54.092477
37037		-0.000309	0.721959	0.041467	-0.690692	-128.481891	85.770876	54.855900
37038		-0.000159	0.721398	0.041316	-0.691287	-127.649113	85.846186	55.688465
37039		-0.000022	0.720885	0.041092	-0.691835	-126.908692	85.920002	56.421725
37040		0.000075	0.720419	0.040803	-0.692337	-126.243331	85.990591	57.071418
37041		0.000130	0.719994	0.040448	-0.692800	-125.643958	86.058639	57.646410
37042		0.000123	0.719630	0.040033	-0.693203	-125.138201	86.120716	58.117884
37043		0.000080	0.719286	0.039604	-0.693584	-124.645024	86.179099	58.572670
37044		0.000013	0.718961	0.039124	-0.693948	-124.186708	86.237560	58.986681
37045		-0.000126	0.718698	0.038671	-0.694246	-123.784229	86.283352	59.341074
37046		-0.000265	0.718531	0.038231	-0.694443	-123.574079	86.319706	59.504210
37047		-0.000415	0.718428	0.037846	-0.694571	-123.461771	86.345876	59.573120
37048		-0.000533	0.718369	0.037514	-0.694650	-123.440026	86.366482	59.558386
37049		-0.000560	0.718424	0.037243	-0.694607	-123.699194	86.379027	59.274988
37050		-0.000556	0.718625	0.036991	-0.694413	-124.293159	86.379255	58.660934
37051		-0.000482	0.718882	0.036821	-0.694156	-125.012270	86.373120	57.934026
37052		-0.000334	0.719014	0.036660	-0.694028	-125.507088	86.382160	57.438114
37053		-0.000135	0.718900	0.036439	-0.694157	-125.550753	86.421437	57.392618
37054		0.000109	0.718581	0.036066	-0.694507	-125.269435	86.493163	57.663422
37055		0.000295	0.718144	0.035533	-0.694986	-124.765128	86.582882	58.139555
37056		0.000458	0.717701	0.034884	-0.695477	-124.277453	86.679262	58.587796
37057		0.000595	0.717440	0.034120	-0.695784	-124.267396	86.765694	58.546926
37058		0.000661	0.717489	0.033360	-0.695770	-124.971407	86.818807	57.786582
37059		0.000651	0.717910	0.032670	-0.695368	-126.496841	86.826715	56.204432
37060		0.000621	0.718470	0.032057	-0.694818	-128.281782	86.811929	54.367330
37061		0.000563	0.718647	0.031545	-0.694659	-129.049958	86.824660	53.552990
37062		0.000518	0.718281	0.030991	-0.695063	-128.581981	86.895398	53.972315
37063		0.000414	0.717920	0.030327	-0.695464	-128.141646	86.968853	54.350266
37064		0.000237	0.717577	0.029615	-0.695849	-127.696620	87.038919	54.723270
37065		0.000042	0.717155	0.028881	-0.696315	-127.024957	87.116692	55.319500
37066		-0.000196	0.716958	0.028191	-0.696546	-126.853278	87.166691	55.415993
37067		-0.000441	0.717276	0.027598	-0.696242	-127.977065	87.159523	54.224168
37068		-0.000679	0.718027	0.027116	-0.695486	-130.112488	87.099952	52.030469
37069		-0.000948	0.718833	0.026843	-0.694664	-132.063084	87.015339	50.036017
37070		-0.001180	0.719040	0.026549	-0.694460	-132.583417	86.997124	49.473000
37071		-0.001401	0.718911	0.026150	-0.694609	-132.418085	87.022910	49.588060
37072		-0.001652	0.718696	0.025579	-0.694851	-132.176526	87.066812	49.762933
37073		-0.001938	0.718456	0.024921	-0.695124	-131.912764	87.116910	49.950189
