// General information: 
//  MT Manager version: 2022.2.0 
//  XDA version: 2022.2.0 build 7381 rev 124627 built on 2023-07-19
// Device information: 
//  DeviceId: 10B41517
//  ProductCode: MTW2-3A7G6
//  Firmware Version: 4.14.0
//  Hardware Version: 3.0.0
// Device settings: 
//  Filter Profile: human(46.1)
//  Option Flags: Orientation Smoother Disabled, Position/Velocity Smoother Disabled, Continuous Zero Rotation Update Disabled, AHS Disabled, ICC Disabled
// Coordinate system: ENU
PacketCounter	SampleTimeFine	Quat_q0	Quat_q1	Quat_q2	Quat_q3	Roll	Pitch	Yaw
35519		0.078864	-0.567344	-0.025263	-0.819307	-7.715163	-69.009796	-163.695951
35520		0.078868	-0.567350	-0.025255	-0.819302	-7.718511	-69.010437	-163.692931
35521		0.079021	-0.567323	-0.025370	-0.819302	-7.714559	-69.007607	-163.674746
35522		0.079062	-0.567285	-0.025414	-0.819324	-7.707567	-69.002868	-163.674610
35523		0.079115	-0.567251	-0.025470	-0.819340	-7.700000	-68.998828	-163.673215
35524		0.079121	-0.567261	-0.025478	-0.819332	-7.699846	-69.000351	-163.672163
35525		0.079019	-0.567270	-0.025405	-0.819339	-7.700822	-69.001003	-163.685700
35526		0.079015	-0.567239	-0.025391	-0.819361	-7.701280	-68.996541	-163.686584
35527		0.079038	-0.567219	-0.025380	-0.819372	-7.706621	-68.993488	-163.680270
35528		0.079052	-0.567182	-0.025363	-0.819397	-7.710569	-68.987996	-163.676486
35529		0.079082	-0.567119	-0.025375	-0.819438	-7.708087	-68.979325	-163.675398
35530		0.079109	-0.567060	-0.025383	-0.819475	-7.706111	-68.971195	-163.674314
35531		0.079111	-0.567024	-0.025391	-0.819500	-7.701630	-68.966347	-163.677874
35532		0.079124	-0.567018	-0.025430	-0.819502	-7.693555	-68.966167	-163.681687
35533		0.079166	-0.567031	-0.025471	-0.819487	-7.691507	-68.968398	-163.676848
35534		0.079158	-0.567062	-0.025464	-0.819467	-7.694286	-68.972604	-163.675399
35535		0.079149	-0.567081	-0.025449	-0.819455	-7.698022	-68.974983	-163.673752
35536		0.079130	-0.567097	-0.025413	-0.819447	-7.705324	-68.976631	-163.671005
35537		0.079181	-0.567084	-0.025424	-0.819451	-7.710477	-68.974565	-163.660663
35538		0.079172	-0.567043	-0.025388	-0.819481	-7.714929	-68.968387	-163.659925
35539		0.079167	-0.566996	-0.025356	-0.819515	-7.718397	-68.961341	-163.659318
35540		0.079176	-0.566911	-0.025323	-0.819574	-7.721941	-68.948976	-163.657634
35541		0.079166	-0.566837	-0.025311	-0.819627	-7.717288	-68.938830	-163.664009
35542		0.079174	-0.566768	-0.025305	-0.819674	-7.714827	-68.929124	-163.666116
35543		0.079111	-0.566735	-0.025274	-0.819704	-7.708711	-68.924620	-163.679880
35544		0.079108	-0.566722	-0.025315	-0.819712	-7.696691	-68.923745	-163.688813
35545		0.079131	-0.566731	-0.025357	-0.819702	-7.690989	-68.925554	-163.689157
35546		0.079109	-0.566731	-0.025349	-0.819704	-7.688888	-68.925596	-163.693769
35547		0.078998	-0.566697	-0.025261	-0.819741	-7.688940	-68.920283	-163.710076
35548		0.078958	-0.566648	-0.025245	-0.819780	-7.682006	-68.913591	-163.721558
35549		0.078917	-0.566599	-0.025238	-0.819818	-7.672311	-68.907190	-163.735071
35550		0.078915	-0.566543	-0.025222	-0.819857	-7.671816	-68.899273	-163.736908
35551		0.078934	-0.566505	-0.025263	-0.819880	-7.661848	-68.894803	-163.741900
35552		0.078920	-0.566490	-0.025276	-0.819891	-7.654814	-68.893102	-163.749070
35553		0.078897	-0.566501	-0.025276	-0.819886	-7.651305	-68.894741	-163.754462
35554		0.078871	-0.566541	-0.025299	-0.819860	-7.644137	-68.900902	-163.761924
35555		0.078908	-0.566584	-0.025323	-0.819826	-7.647881	-68.906965	-163.753249
35556		0.078834	-0.566645	-0.025335	-0.819791	-7.636224	-68.916138	-163.770096
35557		0.078752	-0.566690	-0.025314	-0.819768	-7.630535	-68.922675	-163.784455
35558		0.078683	-0.566725	-0.025277	-0.819752	-7.630357	-68.927378	-163.793402
35559		0.078647	-0.566741	-0.025272	-0.819744	-7.626261	-68.929785	-163.800967
35560		0.078574	-0.566734	-0.025272	-0.819756	-7.612770	-68.929458	-163.820504
35561		0.078557	-0.566719	-0.025288	-0.819767	-7.604426	-68.927962	-163.828887
35562		0.078487	-0.566727	-0.025269	-0.819769	-7.597353	-68.929284	-163.843366
35563		0.078357	-0.566764	-0.025224	-0.819758	-7.588353	-68.934644	-163.866930
35564		0.078274	-0.566807	-0.025170	-0.819737	-7.590623	-68.940298	-163.875967
35565		0.078192	-0.566847	-0.025167	-0.819718	-7.579700	-68.946355	-163.894034
35566		0.078105	-0.566897	-0.025109	-0.819693	-7.582933	-68.952906	-163.902952
35567		0.077998	-0.566924	-0.025076	-0.819686	-7.574056	-68.956906	-163.923381
35568		0.077934	-0.566912	-0.025061	-0.819701	-7.565519	-68.955601	-163.938480
35569		0.077914	-0.566882	-0.025075	-0.819723	-7.556131	-68.951905	-163.948231
35570		0.077889	-0.566837	-0.025067	-0.819756	-7.550176	-68.945948	-163.956870
35571		0.077901	-0.566803	-0.025075	-0.819779	-7.547442	-68.941251	-163.957888
35572		0.077867	-0.566789	-0.025075	-0.819792	-7.540390	-68.939694	-163.967778
35573		0.077853	-0.566770	-0.025078	-0.819806	-7.535602	-68.937318	-163.973417
35574		0.077845	-0.566749	-0.025086	-0.819821	-7.530551	-68.934674	-163.978435
35575		0.077838	-0.566711	-0.025099	-0.819847	-7.523014	-68.929837	-163.985395
35576		0.077838	-0.566672	-0.025101	-0.819874	-7.519517	-68.924526	-163.988699
35577		0.077917	-0.566628	-0.025123	-0.819897	-7.524483	-68.918128	-163.975282
35578		0.077938	-0.566602	-0.025119	-0.819913	-7.527390	-68.914317	-163.970834
35579		0.077907	-0.566586	-0.025088	-0.819928	-7.528468	-68.911917	-163.974923
35580		0.077945	-0.566570	-0.025109	-0.819935	-7.528831	-68.909726	-163.969625
35581		0.077943	-0.566548	-0.025115	-0.819950	-7.525102	-68.906850	-163.973027
35582		0.077973	-0.566517	-0.025096	-0.819969	-7.532981	-68.902064	-163.964129
35583		0.077892	-0.566517	-0.025056	-0.819978	-7.528785	-68.902010	-163.978367
35584		0.077887	-0.566499	-0.025043	-0.819991	-7.529688	-68.899289	-163.978798
35585		0.077882	-0.566482	-0.025041	-0.820003	-7.528121	-68.897067	-163.980939
35586		0.077861	-0.566470	-0.025032	-0.820014	-7.525538	-68.895378	-163.986031
35587		0.077934	-0.566459	-0.025101	-0.820012	-7.520294	-68.894588	-163.979552
35588		0.077957	-0.566421	-0.025096	-0.820037	-7.522725	-68.889048	-163.975584
35589		0.078075	-0.566407	-0.025200	-0.820032	-7.516140	-68.888119	-163.963674
35590		0.078090	-0.566373	-0.025210	-0.820053	-7.513587	-68.883557	-163.964165
35591		0.078017	-0.566367	-0.025150	-0.820067	-7.515434	-68.882136	-163.973300
35592		0.078032	-0.566373	-0.025144	-0.820062	-7.520208	-68.882687	-163.967822
35593		0.078095	-0.566375	-0.025164	-0.820053	-7.526475	-68.882866	-163.954630
35594		0.078120	-0.566378	-0.025133	-0.820050	-7.539208	-68.882397	-163.942396
35595		0.078263	-0.566363	-0.025183	-0.820045	-7.550820	-68.880089	-163.914788
35596		0.078281	-0.566348	-0.025201	-0.820053	-7.548193	-68.878099	-163.914497
35597		0.078244	-0.566318	-0.025117	-0.820080	-7.560948	-68.872796	-163.911593
35598		0.078256	-0.566322	-0.025131	-0.820076	-7.559761	-68.873433	-163.910705
35599		0.078285	-0.566316	-0.025131	-0.820077	-7.564444	-68.872470	-163.903589
35600		0.078319	-0.566281	-0.025154	-0.820097	-7.561842	-68.867760	-163.901416
35601		0.078387	-0.566242	-0.025195	-0.820116	-7.560629	-68.862668	-163.893547
35602		0.078422	-0.566221	-0.025209	-0.820127	-7.561463	-68.859648	-163.888617
35603		0.078405	-0.566190	-0.025166	-0.820152	-7.567230	-68.854727	-163.887757
35604		0.078427	-0.566164	-0.025162	-0.820168	-7.570078	-68.850925	-163.883361
35605		0.078443	-0.566150	-0.025205	-0.820174	-7.560771	-68.849710	-163.887695
35606		0.078480	-0.566143	-0.025201	-0.820176	-7.568014	-68.848336	-163.877718
35607		0.078388	-0.566151	-0.025157	-0.820180	-7.563462	-68.849408	-163.893517
35608		0.078415	-0.566159	-0.025179	-0.820171	-7.563220	-68.850790	-163.889819
35609		0.078409	-0.566181	-0.025204	-0.820156	-7.557565	-68.854228	-163.893937
35610		0.078403	-0.566190	-0.025221	-0.820150	-7.552894	-68.855905	-163.897708
35611		0.078377	-0.566160	-0.025241	-0.820172	-7.540657	-68.852422	-163.910320
35612		0.078353	-0.566133	-0.025251	-0.820193	-7.531641	-68.849103	-163.920476
35613		0.078312	-0.566104	-0.025223	-0.820218	-7.529170	-68.845030	-163.928591
35614		0.078292	-0.566063	-0.025185	-0.820249	-7.532124	-68.838966	-163.930370
35615		0.078163	-0.566044	-0.025120	-0.820276	-7.524459	-68.836256	-163.954042
35616		0.078146	-0.566051	-0.025109	-0.820274	-7.524787	-68.837106	-163.956050
35617		0.078238	-0.566080	-0.025174	-0.820243	-7.526850	-68.841450	-163.941031
35618		0.078222	-0.566116	-0.025182	-0.820220	-7.524606	-68.846644	-163.944063
35619		0.078244	-0.566146	-0.025238	-0.820195	-7.516426	-68.851698	-163.945858
35620		0.078247	-0.566154	-0.025267	-0.820188	-7.510236	-68.853322	-163.949447
35621		0.078388	-0.566139	-0.025381	-0.820182	-7.504933	-68.852119	-163.933614
35622		0.078373	-0.566153	-0.025413	-0.820173	-7.495267	-68.854779	-163.941848
35623		0.078324	-0.566153	-0.025394	-0.820178	-7.491399	-68.854859	-163.951415
35624		0.078345	-0.566142	-0.025418	-0.820182	-7.488209	-68.853720	-163.950829
35625		0.078349	-0.566140	-0.025423	-0.820184	-7.487352	-68.853422	-163.950952
35626		0.078362	-0.566147	-0.025454	-0.820176	-7.482624	-68.854953	-163.952061
35627		0.078390	-0.566173	-0.025488	-0.820154	-7.480765	-68.858873	-163.948867
35628		0.078381	-0.566220	-0.025509	-0.820122	-7.477453	-68.865750	-163.951255
35629		0.078444	-0.566245	-0.025567	-0.820097	-7.475846	-68.869700	-163.942910
35630		0.078422	-0.566300	-0.025571	-0.820061	-7.475024	-68.877524	-163.945352
35631		0.078383	-0.566345	-0.025556	-0.820034	-7.475240	-68.883759	-163.949707
35632		0.078371	-0.566374	-0.025570	-0.820015	-7.471976	-68.888068	-163.952902
35633		0.078341	-0.566399	-0.025567	-0.820001	-7.469214	-68.891625	-163.958411
35634		0.078331	-0.566429	-0.025570	-0.819981	-7.468934	-68.895890	-163.959308
35635		0.078362	-0.566431	-0.025614	-0.819975	-7.463561	-68.896741	-163.958511
35636		0.078358	-0.566416	-0.025628	-0.819986	-7.457917	-68.894964	-163.963256
35637		0.078455	-0.566389	-0.025706	-0.819992	-7.453176	-68.891941	-163.953486
35638		0.078437	-0.566382	-0.025704	-0.819999	-7.450030	-68.891110	-163.958275
35639		0.078443	-0.566403	-0.025736	-0.819983	-7.444388	-68.894552	-163.960890
35640		0.078400	-0.566431	-0.025708	-0.819969	-7.446173	-68.898184	-163.964980
35641		0.078477	-0.566458	-0.025747	-0.819941	-7.452128	-68.901995	-163.949483
35642		0.078425	-0.566486	-0.025717	-0.819928	-7.452433	-68.905726	-163.956062
35643		0.078320	-0.566518	-0.025647	-0.819918	-7.454012	-68.909665	-163.968967
35644		0.078301	-0.566521	-0.025620	-0.819919	-7.457830	-68.909638	-163.969008
35645		0.078252	-0.566537	-0.025601	-0.819913	-7.454986	-68.911936	-163.977484
35646		0.078233	-0.566524	-0.025546	-0.819926	-7.464852	-68.909247	-163.973708
35647		0.078098	-0.566517	-0.025467	-0.819946	-7.460244	-68.907968	-163.996007
35648		0.078070	-0.566494	-0.025435	-0.819965	-7.461658	-68.904577	-163.999482
35649		0.078018	-0.566505	-0.025384	-0.819964	-7.466364	-68.905517	-164.003269
35650		0.077973	-0.566515	-0.025348	-0.819963	-7.468208	-68.906581	-164.008161
35651		0.077866	-0.566544	-0.025299	-0.819954	-7.463898	-68.910637	-164.025430
35652		0.077845	-0.566572	-0.025274	-0.819938	-7.468636	-68.914074	-164.024541
35653		0.077744	-0.566597	-0.025186	-0.819933	-7.474863	-68.916706	-164.033875
35654		0.077732	-0.566638	-0.025201	-0.819905	-7.472036	-68.922750	-164.036622
35655		0.077837	-0.566654	-0.025273	-0.819882	-7.473738	-68.925304	-164.020339
35656		0.077844	-0.566678	-0.025273	-0.819865	-7.476931	-68.928535	-164.016582
35657		0.077853	-0.566696	-0.025275	-0.819851	-7.479275	-68.931013	-164.013276
35658		0.077879	-0.566702	-0.025271	-0.819845	-7.485495	-68.931474	-164.005327
35659		0.077877	-0.566702	-0.025288	-0.819844	-7.480719	-68.931796	-164.008797
35660		0.077896	-0.566713	-0.025289	-0.819835	-7.484930	-68.933195	-164.003017
35661		0.077855	-0.566716	-0.025269	-0.819837	-7.482968	-68.933595	-164.010016
35662		0.077867	-0.566701	-0.025228	-0.819848	-7.494284	-68.930654	-164.001074
35663		0.077982	-0.566689	-0.025271	-0.819844	-7.503040	-68.928736	-163.979189
35664		0.078019	-0.566694	-0.025268	-0.819837	-7.510736	-68.929096	-163.968747
35665		0.078088	-0.566706	-0.025312	-0.819821	-7.512775	-68.930920	-163.957347
35666		0.078147	-0.566702	-0.025338	-0.819817	-7.516444	-68.930282	-163.946686
35667		0.078283	-0.566725	-0.025428	-0.819786	-7.519577	-68.933924	-163.924966
35668		0.078340	-0.566745	-0.025456	-0.819765	-7.524177	-68.936752	-163.913353
35669		0.078389	-0.566786	-0.025479	-0.819731	-7.530361	-68.942329	-163.901302
35670		0.078427	-0.566838	-0.025513	-0.819691	-7.532414	-68.949662	-163.893391
35671		0.078463	-0.566865	-0.025531	-0.819668	-7.536444	-68.953446	-163.884964
35672		0.078484	-0.566907	-0.025540	-0.819637	-7.541066	-68.959155	-163.877891
35673		0.078588	-0.566921	-0.025580	-0.819616	-7.550852	-68.960833	-163.856233
35674		0.078601	-0.566938	-0.025585	-0.819603	-7.553052	-68.963178	-163.852611
35675		0.078732	-0.566958	-0.025662	-0.819574	-7.558451	-68.966160	-163.830058
35676		0.078745	-0.566992	-0.025685	-0.819549	-7.557596	-68.971127	-163.827936
35677		0.078832	-0.567020	-0.025758	-0.819518	-7.556672	-68.975585	-163.815685
35678		0.078861	-0.567014	-0.025743	-0.819520	-7.565415	-68.974268	-163.805891
35679		0.078913	-0.567045	-0.025782	-0.819493	-7.567238	-68.978700	-163.796544
35680		0.078898	-0.567053	-0.025761	-0.819489	-7.570526	-68.979520	-163.796249
35681		0.078792	-0.567040	-0.025675	-0.819511	-7.572545	-68.977093	-163.810034
35682		0.078781	-0.567024	-0.025641	-0.819524	-7.577887	-68.974399	-163.808392
35683		0.078742	-0.567030	-0.025589	-0.819525	-7.584763	-68.974515	-163.809018
35684		0.078744	-0.567051	-0.025619	-0.819510	-7.578943	-68.977903	-163.812195
35685		0.078745	-0.567099	-0.025674	-0.819475	-7.568880	-68.985547	-163.817808
35686		0.078781	-0.567123	-0.025726	-0.819453	-7.563965	-68.989522	-163.815494
35687		0.078750	-0.567124	-0.025745	-0.819454	-7.553389	-68.990350	-163.827114
35688		0.078809	-0.567126	-0.025824	-0.819445	-7.543934	-68.991602	-163.825100
35689		0.078868	-0.567105	-0.025882	-0.819452	-7.537964	-68.989287	-163.821394
35690		0.078943	-0.567071	-0.025949	-0.819467	-7.531563	-68.985196	-163.816026
35691		0.078959	-0.567040	-0.025959	-0.819486	-7.529297	-68.981100	-163.816090
35692		0.079006	-0.567022	-0.025993	-0.819493	-7.527944	-68.978897	-163.810768
35693		0.079063	-0.567026	-0.026010	-0.819484	-7.534201	-68.979213	-163.798357
35694		0.079122	-0.567019	-0.026009	-0.819483	-7.544351	-68.977649	-163.783427
35695		0.079296	-0.567034	-0.026077	-0.819454	-7.559365	-68.979484	-163.748413
35696		0.079349	-0.567060	-0.026064	-0.819431	-7.574484	-68.982222	-163.730022
35697		0.079387	-0.567092	-0.026055	-0.819406	-7.586201	-68.986079	-163.715962
35698		0.079451	-0.567117	-0.026043	-0.819382	-7.602804	-68.988714	-163.695073
35699		0.079477	-0.567158	-0.026024	-0.819352	-7.615673	-68.993657	-163.681689
35700		0.079538	-0.567181	-0.026032	-0.819330	-7.626259	-68.996396	-163.665441
35701		0.079647	-0.567190	-0.026087	-0.819311	-7.632616	-68.997729	-163.645549
35702		0.079712	-0.567219	-0.026102	-0.819285	-7.642679	-69.001309	-163.628964
35703		0.079891	-0.567238	-0.026238	-0.819250	-7.641547	-69.004965	-163.604020
35704		0.079925	-0.567255	-0.026247	-0.819234	-7.646686	-69.007120	-163.595408
35705		0.080025	-0.567268	-0.026295	-0.819214	-7.653522	-69.008945	-163.576386
35706		0.080041	-0.567291	-0.026307	-0.819196	-7.655181	-69.012147	-163.572425
35707		0.080145	-0.567280	-0.026347	-0.819192	-7.662673	-69.010540	-163.553008
35708		0.080165	-0.567279	-0.026347	-0.819191	-7.666365	-69.010224	-163.547720
35709		0.080040	-0.567304	-0.026272	-0.819188	-7.665173	-69.013211	-163.565449
35710		0.080055	-0.567322	-0.026267	-0.819174	-7.670369	-69.015517	-163.559496
35711		0.080131	-0.567345	-0.026313	-0.819150	-7.674100	-69.018794	-163.545742
35712		0.080163	-0.567374	-0.026323	-0.819126	-7.679730	-69.022682	-163.536621
35713		0.080293	-0.567396	-0.026421	-0.819095	-7.679691	-69.026331	-163.517952
35714		0.080328	-0.567403	-0.026455	-0.819086	-7.677777	-69.027709	-163.514160
35715		0.080453	-0.567435	-0.026543	-0.819048	-7.680576	-69.032635	-163.493808
35716		0.080479	-0.567470	-0.026558	-0.819021	-7.684203	-69.037471	-163.486840
35717		0.080596	-0.567522	-0.026639	-0.818971	-7.688639	-69.045092	-163.466147
35718		0.080636	-0.567530	-0.026616	-0.818962	-7.702343	-69.045351	-163.451031
35719		0.080752	-0.567535	-0.026693	-0.818945	-7.703803	-69.046433	-163.433629
35720		0.080787	-0.567527	-0.026700	-0.818947	-7.707946	-69.045128	-163.426015
35721		0.080972	-0.567531	-0.026817	-0.818922	-7.711478	-69.046280	-163.397589
35722		0.080998	-0.567540	-0.026839	-0.818913	-7.711092	-69.047710	-163.393956
35723		0.081121	-0.567542	-0.026922	-0.818896	-7.712324	-69.048583	-163.375681
35724		0.081146	-0.567550	-0.026955	-0.818887	-7.708914	-69.050071	-163.374379
35725		0.081223	-0.567557	-0.026979	-0.818874	-7.717259	-69.050771	-163.357696
35726		0.081195	-0.567577	-0.026968	-0.818863	-7.716541	-69.053496	-163.361690
35727		0.081178	-0.567620	-0.026947	-0.818836	-7.722471	-69.059105	-163.358957
35728		0.081146	-0.567660	-0.026922	-0.818812	-7.726295	-69.064397	-163.359932
35729		0.081271	-0.567663	-0.027000	-0.818795	-7.729161	-69.065188	-163.340364
35730		0.081218	-0.567691	-0.026970	-0.818781	-7.729525	-69.068955	-163.346837
35731		0.081266	-0.567702	-0.027000	-0.818768	-7.731177	-69.070514	-163.338776
35732		0.081224	-0.567730	-0.026973	-0.818754	-7.733018	-69.074177	-163.342751
35733		0.081175	-0.567730	-0.026893	-0.818761	-7.744825	-69.073116	-163.341552
35734		0.081090	-0.567756	-0.026832	-0.818753	-7.747310	-69.076241	-163.351179
35735		0.081098	-0.567750	-0.026835	-0.818757	-7.747415	-69.075393	-163.350115
35736		0.081059	-0.567767	-0.026796	-0.818750	-7.751780	-69.077267	-163.352263
35737		0.081089	-0.567806	-0.026823	-0.818719	-7.753383	-69.082862	-163.345964
35738		0.081056	-0.567845	-0.026808	-0.818696	-7.754174	-69.088212	-163.349263
35739		0.081095	-0.567879	-0.026839	-0.818668	-7.756234	-69.093007	-163.341481
35740		0.081090	-0.567888	-0.026857	-0.818661	-7.751392	-69.094748	-163.345325
35741		0.081116	-0.567888	-0.026898	-0.818658	-7.745415	-69.095249	-163.345759
35742		0.081131	-0.567894	-0.026892	-0.818652	-7.750122	-69.095823	-163.340260
35743		0.081287	-0.567880	-0.026985	-0.818643	-7.753542	-69.094372	-163.316300
35744		0.081318	-0.567867	-0.026985	-0.818649	-7.758209	-69.092217	-163.308989
35745		0.081563	-0.567843	-0.027095	-0.818638	-7.772035	-69.088869	-163.265784
35746		0.081609	-0.567831	-0.027077	-0.818642	-7.784238	-69.086493	-163.251294
35747		0.081658	-0.567834	-0.027062	-0.818636	-7.797143	-69.086052	-163.235527
35748		0.081696	-0.567863	-0.027015	-0.818613	-7.818458	-69.088802	-163.214964
35749		0.081887	-0.567893	-0.027081	-0.818571	-7.838674	-69.092413	-163.173616
35750		0.081938	-0.567933	-0.027106	-0.818537	-7.844775	-69.097879	-163.161223
35751		0.082096	-0.567986	-0.027205	-0.818482	-7.852321	-69.105475	-163.132544
35752		0.082136	-0.568025	-0.027239	-0.818450	-7.853910	-69.111109	-163.124985
35753		0.082167	-0.568056	-0.027248	-0.818424	-7.859801	-69.115316	-163.115874
35754		0.082188	-0.568072	-0.027266	-0.818410	-7.860435	-69.117638	-163.112019
35755		0.082369	-0.568090	-0.027376	-0.818376	-7.866179	-69.120588	-163.082243
35756		0.082377	-0.568088	-0.027385	-0.818376	-7.865335	-69.120442	-163.081749
35757		0.082426	-0.568082	-0.027395	-0.818375	-7.871297	-69.119373	-163.070873
35758		0.082441	-0.568088	-0.027389	-0.818370	-7.876002	-69.119949	-163.065350
35759		0.082612	-0.568091	-0.027488	-0.818348	-7.881742	-69.120640	-163.037431
35760		0.082615	-0.568110	-0.027482	-0.818334	-7.885476	-69.123056	-163.033874
35761		0.082702	-0.568126	-0.027532	-0.818313	-7.889628	-69.125452	-163.018422
35762		0.082718	-0.568135	-0.027554	-0.818304	-7.887742	-69.126995	-163.017242
35763		0.082717	-0.568143	-0.027585	-0.818297	-7.880220	-69.128697	-163.022291
35764		0.082724	-0.568153	-0.027594	-0.818289	-7.879882	-69.130286	-163.021267
35765		0.082910	-0.568153	-0.027684	-0.818267	-7.890643	-69.130316	-162.987744
35766		0.082889	-0.568157	-0.027704	-0.818266	-7.881784	-69.131400	-162.996750
35767		0.083071	-0.568140	-0.027815	-0.818256	-7.884727	-69.129637	-162.969525
35768		0.083104	-0.568117	-0.027841	-0.818268	-7.882254	-69.126720	-162.967089
35769		0.083309	-0.568085	-0.027973	-0.818264	-7.882996	-69.123073	-162.938410
35770		0.083338	-0.568069	-0.027993	-0.818272	-7.881554	-69.121047	-162.935784
35771		0.083436	-0.568056	-0.028065	-0.818268	-7.879854	-69.119798	-162.923398
35772		0.083486	-0.568065	-0.028082	-0.818256	-7.885440	-69.120962	-162.912367
35773		0.083508	-0.568079	-0.028106	-0.818243	-7.884486	-69.123156	-162.909510
35774		0.083532	-0.568097	-0.028114	-0.818229	-7.888142	-69.125425	-162.903285
35775		0.083561	-0.568129	-0.028149	-0.818202	-7.886825	-69.130326	-162.899336
35776		0.083554	-0.568148	-0.028142	-0.818190	-7.889072	-69.132856	-162.898258
35777		0.083617	-0.568166	-0.028188	-0.818170	-7.890369	-69.135547	-162.888033
35778		0.083598	-0.568170	-0.028198	-0.818168	-7.884536	-69.136578	-162.894684
35779		0.083610	-0.568140	-0.028232	-0.818187	-7.875271	-69.133063	-162.900031
35780		0.083568	-0.568116	-0.028220	-0.818208	-7.869000	-69.129935	-162.910735
35781		0.083559	-0.568095	-0.028238	-0.818223	-7.860776	-69.127526	-162.918166
35782		0.083486	-0.568083	-0.028185	-0.818241	-7.860214	-69.125423	-162.929124
35783		0.083406	-0.568097	-0.028147	-0.818240	-7.856545	-69.127342	-162.942499
35784		0.083316	-0.568113	-0.028063	-0.818241	-7.863161	-69.128734	-162.950351
35785		0.083341	-0.568119	-0.028032	-0.818235	-7.876330	-69.128663	-162.937725
35786		0.083221	-0.568125	-0.027931	-0.818247	-7.881012	-69.128588	-162.951259
35787		0.083092	-0.568132	-0.027813	-0.818259	-7.888488	-69.128319	-162.964204
35788		0.082988	-0.568119	-0.027718	-0.818282	-7.893094	-69.125518	-162.975968
35789		0.082973	-0.568101	-0.027678	-0.818297	-7.899262	-69.122506	-162.974383
35790		0.082859	-0.568117	-0.027600	-0.818300	-7.899847	-69.124188	-162.989594
35791		0.082801	-0.568129	-0.027552	-0.818300	-7.902766	-69.125343	-162.995551
35792		0.082701	-0.568136	-0.027491	-0.818307	-7.900755	-69.126091	-163.010805
35793		0.082615	-0.568135	-0.027431	-0.818318	-7.900557	-69.125507	-163.023053
35794		0.082512	-0.568151	-0.027356	-0.818320	-7.902608	-69.127086	-163.035776
35795		0.082395	-0.568159	-0.027255	-0.818330	-7.907995	-69.127230	-163.048402
35796		0.082310	-0.568201	-0.027222	-0.818311	-7.904402	-69.133083	-163.061769
35797		0.082270	-0.568223	-0.027180	-0.818300	-7.909906	-69.135659	-163.063098
35798		0.082190	-0.568270	-0.027154	-0.818277	-7.905783	-69.142356	-163.076131
35799		0.082127	-0.568295	-0.027124	-0.818267	-7.904155	-69.145750	-163.085442
35800		0.082094	-0.568308	-0.027118	-0.818261	-7.900892	-69.147710	-163.092059
35801		0.082116	-0.568315	-0.027156	-0.818253	-7.895614	-69.149255	-163.092300
35802		0.082067	-0.568306	-0.027123	-0.818265	-7.894429	-69.147848	-163.100282
35803		0.082037	-0.568290	-0.027094	-0.818280	-7.895238	-69.145365	-163.104257
35804		0.082031	-0.568242	-0.027074	-0.818315	-7.895446	-69.138378	-163.106151
35805		0.082132	-0.568200	-0.027139	-0.818332	-7.893336	-69.133021	-163.094416
35806		0.082119	-0.568202	-0.027172	-0.818331	-7.882900	-69.134052	-163.103253
35807		0.082134	-0.568187	-0.027183	-0.818339	-7.881530	-69.132189	-163.102414
35808		0.082134	-0.568190	-0.027207	-0.818336	-7.875623	-69.133049	-163.106398
35809		0.082207	-0.568191	-0.027280	-0.818326	-7.870012	-69.133926	-163.099896
35810		0.082203	-0.568188	-0.027297	-0.818327	-7.864622	-69.133945	-163.104222
35811		0.082198	-0.568195	-0.027321	-0.818323	-7.858110	-69.135387	-163.109231
35812		0.082195	-0.568180	-0.027337	-0.818333	-7.852209	-69.133674	-163.114084
35813		0.082270	-0.568166	-0.027388	-0.818333	-7.851688	-69.132153	-163.104109
35814		0.082302	-0.568142	-0.027424	-0.818345	-7.846181	-69.129281	-163.103990
35815		0.082368	-0.568125	-0.027502	-0.818348	-7.836588	-69.127900	-163.101644
35816		0.082409	-0.568125	-0.027542	-0.818342	-7.833579	-69.128385	-163.097971
35817		0.082556	-0.568126	-0.027670	-0.818323	-7.827382	-69.129655	-163.081410
35818		0.082631	-0.568132	-0.027759	-0.818307	-7.818652	-69.131683	-163.076611
35819		0.082838	-0.568109	-0.027921	-0.818298	-7.812517	-69.129778	-163.052272
35820		0.082911	-0.568099	-0.027992	-0.818294	-7.806831	-69.129175	-163.045994
35821		0.082893	-0.568114	-0.027983	-0.818286	-7.807113	-69.131178	-163.048014
35822		0.082933	-0.568100	-0.028032	-0.818290	-7.800524	-69.130002	-163.047235
35823		0.083033	-0.568073	-0.028103	-0.818296	-7.798100	-69.126798	-163.035438
35824		0.083125	-0.568045	-0.028170	-0.818304	-7.795376	-69.123408	-163.025041
35825		0.083174	-0.568023	-0.028228	-0.818313	-7.787437	-69.121105	-163.024018
35826		0.083266	-0.568020	-0.028287	-0.818303	-7.788761	-69.121123	-163.010225
35827		0.083297	-0.568036	-0.028283	-0.818289	-7.796626	-69.122929	-163.000162
35828		0.083349	-0.568079	-0.028336	-0.818252	-7.796061	-69.129368	-162.992092
35829		0.083521	-0.568100	-0.028498	-0.818214	-7.787127	-69.133868	-162.973572
35830		0.083602	-0.568098	-0.028556	-0.818206	-7.786946	-69.134004	-162.962295
35831		0.083768	-0.568102	-0.028668	-0.818182	-7.788657	-69.135277	-162.937605
35832		0.083835	-0.568095	-0.028717	-0.818178	-7.787508	-69.134682	-162.929168
35833		0.083913	-0.568073	-0.028767	-0.818184	-7.786958	-69.132000	-162.919024
35834		0.083968	-0.568052	-0.028824	-0.818190	-7.780753	-69.129850	-162.915982
35835		0.084081	-0.568051	-0.028913	-0.818176	-7.778085	-69.130432	-162.901998
35836		0.084109	-0.568009	-0.028941	-0.818202	-7.772495	-69.125019	-162.902811
35837		0.084240	-0.568016	-0.029067	-0.818179	-7.764452	-69.127338	-162.889606
35838		0.084248	-0.568011	-0.029049	-0.818182	-7.770164	-69.126239	-162.884723
35839		0.084302	-0.568011	-0.029116	-0.818174	-7.762713	-69.127024	-162.882236
35840		0.084307	-0.568007	-0.029145	-0.818176	-7.755696	-69.127029	-162.886444
35841		0.084396	-0.568009	-0.029223	-0.818162	-7.751883	-69.128126	-162.876455
35842		0.084388	-0.567989	-0.029233	-0.818177	-7.746447	-69.125600	-162.881673
35843		0.084468	-0.567987	-0.029327	-0.818166	-7.736425	-69.126621	-162.877339
35844		0.084477	-0.567973	-0.029335	-0.818175	-7.734991	-69.124765	-162.877364
35845		0.084606	-0.567974	-0.029456	-0.818156	-7.727254	-69.126166	-162.864462
35846		0.084592	-0.567970	-0.029434	-0.818161	-7.730001	-69.125288	-162.864566
35847		0.084644	-0.567969	-0.029478	-0.818155	-7.728141	-69.125629	-162.858606
35848		0.084625	-0.567959	-0.029460	-0.818165	-7.728365	-69.123972	-162.861403
35849		0.084572	-0.567948	-0.029419	-0.818179	-7.728488	-69.122206	-162.869056
35850		0.084546	-0.567943	-0.029406	-0.818186	-7.726702	-69.121503	-162.874014
35851		0.084708	-0.567930	-0.029520	-0.818174	-7.725534	-69.120579	-162.852324
35852		0.084724	-0.567940	-0.029543	-0.818165	-7.723551	-69.122146	-162.851138
35853		0.084723	-0.567921	-0.029556	-0.818178	-7.718377	-69.119874	-162.855244
35854		0.084713	-0.567938	-0.029570	-0.818166	-7.714472	-69.122549	-162.858856
35855		0.084772	-0.567948	-0.029609	-0.818152	-7.715993	-69.124161	-162.849314
35856		0.084754	-0.567954	-0.029609	-0.818150	-7.713145	-69.125149	-162.853597
35857		0.084844	-0.567943	-0.029680	-0.818145	-7.710351	-69.124251	-162.843128
35858		0.084836	-0.567931	-0.029664	-0.818155	-7.712052	-69.122487	-162.843421
35859		0.084917	-0.567915	-0.029747	-0.818154	-7.703840	-69.121249	-162.837966
35860		0.084943	-0.567892	-0.029725	-0.818169	-7.712521	-69.117359	-162.828942
35861		0.084898	-0.567875	-0.029674	-0.818187	-7.715971	-69.114463	-162.833297
35862		0.084899	-0.567866	-0.029697	-0.818192	-7.709462	-69.113631	-162.837834
35863		0.084875	-0.567879	-0.029686	-0.818186	-7.709077	-69.115412	-162.841126
35864		0.084851	-0.567887	-0.029665	-0.818183	-7.710852	-69.116380	-162.843183
35865		0.084773	-0.567897	-0.029596	-0.818187	-7.715343	-69.116971	-162.850803
35866		0.084736	-0.567902	-0.029556	-0.818189	-7.719221	-69.117138	-162.853334
35867		0.084727	-0.567903	-0.029546	-0.818190	-7.720209	-69.117227	-162.853950
35868		0.084699	-0.567920	-0.029509	-0.818182	-7.726080	-69.119017	-162.853449
35869		0.084695	-0.567903	-0.029503	-0.818195	-7.725422	-69.116659	-162.854906
35870		0.084664	-0.567902	-0.029458	-0.818200	-7.731308	-69.115872	-162.855276
35871		0.084719	-0.567901	-0.029498	-0.818193	-7.731095	-69.116068	-162.847655
35872		0.084675	-0.567886	-0.029470	-0.818210	-7.728878	-69.113792	-162.855772
35873		0.084599	-0.567884	-0.029423	-0.818220	-7.727026	-69.113353	-162.867733
35874		0.084538	-0.567886	-0.029363	-0.818228	-7.731522	-69.112834	-162.873233
35875		0.084397	-0.567886	-0.029260	-0.818246	-7.732366	-69.112068	-162.892598
35876		0.084305	-0.567904	-0.029213	-0.818244	-7.729347	-69.114523	-162.907079
35877		0.084237	-0.567938	-0.029190	-0.818229	-7.725893	-69.119271	-162.918189
35878		0.084189	-0.567940	-0.029121	-0.818235	-7.734920	-69.118577	-162.918838
35879		0.084228	-0.567940	-0.029150	-0.818230	-7.734596	-69.118761	-162.913464
35880		0.084199	-0.567929	-0.029131	-0.818241	-7.733327	-69.117219	-162.918753
35881		0.084203	-0.567900	-0.029129	-0.818261	-7.732274	-69.113125	-162.919560
35882		0.084186	-0.567864	-0.029108	-0.818288	-7.731460	-69.108007	-162.923420
35883		0.084260	-0.567822	-0.029135	-0.818309	-7.734445	-69.102070	-162.912023
35884		0.084266	-0.567793	-0.029162	-0.818328	-7.726375	-69.098614	-162.917289
35885		0.084177	-0.567835	-0.029149	-0.818308	-7.716823	-69.104911	-162.935394
35886		0.084173	-0.567881	-0.029125	-0.818277	-7.726147	-69.110788	-162.928494
35887		0.084201	-0.567909	-0.029135	-0.818255	-7.730819	-69.114506	-162.920717
35888		0.084210	-0.567921	-0.029136	-0.818246	-7.733447	-69.116051	-162.917308
35889		0.084247	-0.567916	-0.029140	-0.818245	-7.738460	-69.115077	-162.908839
35890		0.084291	-0.567892	-0.029168	-0.818256	-7.737344	-69.112066	-162.903933
35891		0.084338	-0.567855	-0.029207	-0.818275	-7.732896	-69.107408	-162.901187
35892		0.084404	-0.567816	-0.029210	-0.818296	-7.740854	-69.101468	-162.887451
35893		0.084453	-0.567778	-0.029257	-0.818315	-7.734515	-69.096762	-162.885743
35894		0.084505	-0.567778	-0.029300	-0.818308	-7.732842	-69.097176	-162.879635
35895		0.084511	-0.567799	-0.029295	-0.818294	-7.737001	-69.099828	-162.875431
35896		0.084547	-0.567832	-0.029324	-0.818266	-7.738982	-69.104639	-162.868179
35897		0.084620	-0.567851	-0.029382	-0.818243	-7.738791	-69.107736	-162.857567
35898		0.084667	-0.567884	-0.029412	-0.818214	-7.742248	-69.112438	-162.847821
35899		0.084854	-0.567879	-0.029532	-0.818194	-7.745066	-69.112496	-162.819626
35900		0.084872	-0.567864	-0.029551	-0.818202	-7.742007	-69.110606	-162.819530
35901		0.085000	-0.567844	-0.029634	-0.818199	-7.742206	-69.108427	-162.801921
35902		0.085034	-0.567835	-0.029652	-0.818201	-7.743150	-69.107204	-162.796631
35903		0.085031	-0.567831	-0.029636	-0.818205	-7.746241	-69.106446	-162.795096
35904		0.085042	-0.567834	-0.029663	-0.818201	-7.741689	-69.107247	-162.796616
35905		0.085120	-0.567827	-0.029723	-0.818195	-7.739693	-69.106812	-162.787124
35906		0.085133	-0.567818	-0.029738	-0.818199	-7.737675	-69.105814	-162.786823
35907		0.085145	-0.567817	-0.029744	-0.818199	-7.738154	-69.105600	-162.784801
35908		0.085158	-0.567817	-0.029733	-0.818198	-7.743301	-69.105353	-162.779572
35909		0.085194	-0.567799	-0.029756	-0.818206	-7.742580	-69.102951	-162.775339
35910		0.085213	-0.567768	-0.029747	-0.818226	-7.745629	-69.098353	-162.771407
35911		0.085293	-0.567756	-0.029786	-0.818225	-7.749160	-69.096735	-162.757961
35912		0.085334	-0.567753	-0.029800	-0.818222	-7.752614	-69.096290	-162.749981
35913		0.085290	-0.567764	-0.029765	-0.818220	-7.754600	-69.097460	-162.754493
35914		0.085313	-0.567767	-0.029783	-0.818214	-7.754571	-69.098086	-162.751162
35915		0.085299	-0.567757	-0.029773	-0.818223	-7.753712	-69.096625	-162.754032
35916		0.085312	-0.567745	-0.029760	-0.818231	-7.758327	-69.094648	-162.749356
35917		0.085312	-0.567761	-0.029780	-0.818219	-7.754429	-69.097256	-162.751652
35918		0.085321	-0.567732	-0.029760	-0.818239	-7.759046	-69.092703	-162.747863
35919		0.085470	-0.567713	-0.029862	-0.818233	-7.758128	-69.090873	-162.727971
35920		0.085484	-0.567705	-0.029877	-0.818237	-7.756093	-69.089881	-162.727679
35921		0.085488	-0.567696	-0.029891	-0.818242	-7.752349	-69.088957	-162.729873
35922		0.085508	-0.567681	-0.029901	-0.818249	-7.752313	-69.087009	-162.727434
35923		0.085512	-0.567680	-0.029908	-0.818249	-7.751287	-69.086979	-162.727580
35924		0.085545	-0.567681	-0.029900	-0.818246	-7.759365	-69.086510	-162.717380
35925		0.085596	-0.567675	-0.029917	-0.818244	-7.763777	-69.085641	-162.707309
35926		0.085588	-0.567667	-0.029928	-0.818250	-7.758788	-69.084878	-162.712004
35927		0.085582	-0.567664	-0.029908	-0.818254	-7.762720	-69.084046	-162.710272
35928		0.085613	-0.567649	-0.029919	-0.818260	-7.764147	-69.081988	-162.705352
35929		0.085671	-0.567643	-0.029940	-0.818258	-7.768681	-69.081002	-162.694216
35930		0.085665	-0.567633	-0.029914	-0.818266	-7.773394	-69.079183	-162.692167
35931		0.085699	-0.567620	-0.029933	-0.818271	-7.773689	-69.077444	-162.687504
35932		0.085693	-0.567623	-0.029898	-0.818270	-7.781989	-69.077285	-162.682540
35933		0.085631	-0.567627	-0.029874	-0.818275	-7.777026	-69.077854	-162.694552
35934		0.085626	-0.567634	-0.029867	-0.818271	-7.778679	-69.078682	-162.693972
35935		0.085610	-0.567640	-0.029858	-0.818269	-7.778600	-69.079430	-162.696117
35936		0.085582	-0.567643	-0.029830	-0.818271	-7.780898	-69.079568	-162.698494
35937		0.085539	-0.567653	-0.029801	-0.818270	-7.781359	-69.080753	-162.703943
35938		0.085484	-0.567661	-0.029737	-0.818272	-7.788418	-69.081017	-162.706699
35939		0.085278	-0.567671	-0.029606	-0.818291	-7.785660	-69.081703	-162.737304
35940		0.085239	-0.567656	-0.029521	-0.818309	-7.799246	-69.078250	-162.733961
35941		0.085239	-0.567640	-0.029495	-0.818321	-7.804607	-69.075507	-162.730784
35942		0.085191	-0.567649	-0.029480	-0.818321	-7.800371	-69.076790	-162.740162
35943		0.085237	-0.567643	-0.029515	-0.818319	-7.799353	-69.076244	-162.734577
35944		0.085184	-0.567658	-0.029495	-0.818314	-7.796173	-69.078414	-162.743740
35945		0.085275	-0.567651	-0.029555	-0.818308	-7.796612	-69.077816	-162.730838
35946		0.085246	-0.567643	-0.029563	-0.818315	-7.788668	-69.077283	-162.740512
35947		0.085245	-0.567626	-0.029588	-0.818327	-7.780531	-69.075431	-162.746644
35948		0.085223	-0.567627	-0.029582	-0.818329	-7.778177	-69.075599	-162.751253
35949		0.085280	-0.567629	-0.029634	-0.818319	-7.775418	-69.076523	-162.745121
35950		0.085278	-0.567639	-0.029605	-0.818314	-7.783188	-69.077207	-162.739812
35951		0.085271	-0.567654	-0.029594	-0.818304	-7.786143	-69.079096	-162.738466
35952		0.085287	-0.567676	-0.029618	-0.818287	-7.784615	-69.082414	-162.736736
35953		0.085401	-0.567693	-0.029702	-0.818260	-7.784951	-69.085397	-162.720062
35954		0.085442	-0.567707	-0.029735	-0.818245	-7.785307	-69.087600	-162.713567
35955		0.085460	-0.567716	-0.029758	-0.818236	-7.783281	-69.089233	-162.712282
35956		0.085507	-0.567711	-0.029795	-0.818233	-7.782041	-69.088821	-162.706563
35957		0.085551	-0.567710	-0.029849	-0.818227	-7.775787	-69.089350	-162.704699
35958		0.085613	-0.567683	-0.029902	-0.818237	-7.771355	-69.086281	-162.699634
35959		0.085714	-0.567669	-0.029982	-0.818234	-7.767851	-69.085015	-162.688150
35960		0.085760	-0.567650	-0.030027	-0.818240	-7.762999	-69.082950	-162.685362
35961		0.085847	-0.567644	-0.030084	-0.818233	-7.763482	-69.082476	-162.673005
35962		0.085869	-0.567660	-0.030104	-0.818219	-7.763937	-69.084844	-162.669133
35963		0.085991	-0.567665	-0.030204	-0.818199	-7.760855	-69.086463	-162.653897
35964		0.086031	-0.567648	-0.030227	-0.818206	-7.760649	-69.084370	-162.648871
35965		0.086071	-0.567636	-0.030256	-0.818209	-7.759622	-69.082946	-162.644171
35966		0.086110	-0.567636	-0.030308	-0.818203	-7.753281	-69.083579	-162.642986
35967		0.086130	-0.567642	-0.030324	-0.818196	-7.753256	-69.084605	-162.639999
35968		0.086138	-0.567653	-0.030335	-0.818187	-7.752762	-69.086246	-162.638960
35969		0.086250	-0.567659	-0.030421	-0.818168	-7.751327	-69.087738	-162.624046
35970		0.086249	-0.567671	-0.030420	-0.818160	-7.752428	-69.089421	-162.623124
35971		0.086174	-0.567688	-0.030380	-0.818158	-7.750600	-69.091551	-162.634462
35972		0.086196	-0.567675	-0.030380	-0.818164	-7.753571	-69.089543	-162.629687
35973		0.086208	-0.567691	-0.030380	-0.818152	-7.756995	-69.091682	-162.625232
35974		0.086212	-0.567709	-0.030386	-0.818139	-7.757561	-69.094211	-162.623974
35975		0.086339	-0.567687	-0.030480	-0.818137	-7.754760	-69.092022	-162.608467
35976		0.086346	-0.567669	-0.030471	-0.818149	-7.756788	-69.089284	-162.606519
35977		0.086318	-0.567667	-0.030456	-0.818154	-7.755479	-69.089012	-162.611393
35978		0.086319	-0.567655	-0.030452	-0.818162	-7.755504	-69.087234	-162.611594
35979		0.086319	-0.567623	-0.030450	-0.818185	-7.753688	-69.082817	-162.613511
35980		0.086305	-0.567595	-0.030474	-0.818205	-7.742505	-69.079648	-162.623865
35981		0.086395	-0.567573	-0.030526	-0.818208	-7.743649	-69.076908	-162.610872
35982		0.086395	-0.567589	-0.030552	-0.818197	-7.738074	-69.079588	-162.614348
35983		0.086373	-0.567597	-0.030539	-0.818193	-7.738419	-69.080662	-162.616917
35984		0.086360	-0.567606	-0.030519	-0.818190	-7.741643	-69.081542	-162.616452
35985		0.086338	-0.567598	-0.030504	-0.818198	-7.740870	-69.080366	-162.620270
35986		0.086316	-0.567599	-0.030499	-0.818200	-7.738488	-69.080550	-162.624882
35987		0.086237	-0.567593	-0.030440	-0.818214	-7.738810	-69.079372	-162.635985
35988		0.086203	-0.567593	-0.030443	-0.818218	-7.731890	-69.079747	-162.645455
35989		0.086188	-0.567626	-0.030460	-0.818196	-7.727421	-69.084750	-162.649876
35990		0.086183	-0.567621	-0.030451	-0.818200	-7.728506	-69.083860	-162.649859
35991		0.086159	-0.567634	-0.030451	-0.818193	-7.725107	-69.085934	-162.655219
35992		0.086166	-0.567632	-0.030471	-0.818194	-7.720986	-69.085925	-162.657120
35993		0.086234	-0.567652	-0.030531	-0.818170	-7.719719	-69.089251	-162.647875
35994		0.086218	-0.567672	-0.030523	-0.818159	-7.720401	-69.091938	-162.649224
35995		0.086164	-0.567678	-0.030488	-0.818161	-7.720125	-69.092611	-162.656881
35996		0.086146	-0.567681	-0.030462	-0.818162	-7.723877	-69.092647	-162.656759
35997		0.086034	-0.567705	-0.030378	-0.818161	-7.727018	-69.095147	-162.669925
35998		0.086016	-0.567711	-0.030379	-0.818158	-7.724090	-69.096179	-162.674213
35999		0.086065	-0.567713	-0.030431	-0.818149	-7.719897	-69.097148	-162.670112
36000		0.086039	-0.567724	-0.030447	-0.818144	-7.711889	-69.099217	-162.678923
36001		0.086052	-0.567737	-0.030462	-0.818133	-7.711431	-69.101193	-162.677139
36002		0.086064	-0.567715	-0.030486	-0.818146	-7.705695	-69.098569	-162.679835
36003		0.086086	-0.567705	-0.030495	-0.818150	-7.706376	-69.097171	-162.676559
36004		0.086087	-0.567699	-0.030546	-0.818153	-7.693017	-69.097391	-162.685593
36005		0.086239	-0.567693	-0.030614	-0.818138	-7.702459	-69.096532	-162.657990
36006		0.086238	-0.567708	-0.030641	-0.818127	-7.696848	-69.099220	-162.661491
36007		0.086308	-0.567731	-0.030669	-0.818103	-7.704119	-69.102175	-162.646189
36008		0.086312	-0.567762	-0.030666	-0.818081	-7.708267	-69.106367	-162.642004
36009		0.086281	-0.567791	-0.030630	-0.818066	-7.714202	-69.109800	-162.641695
36010		0.086297	-0.567797	-0.030626	-0.818060	-7.718750	-69.110415	-162.636148
36011		0.086263	-0.567807	-0.030583	-0.818058	-7.724430	-69.111183	-162.636814
36012		0.086293	-0.567805	-0.030596	-0.818056	-7.726299	-69.110874	-162.631386
36013		0.086325	-0.567822	-0.030627	-0.818039	-7.725530	-69.113554	-162.627011
36014		0.086320	-0.567829	-0.030620	-0.818035	-7.727136	-69.114401	-162.626444
36015		0.086301	-0.567836	-0.030608	-0.818033	-7.727142	-69.115277	-162.629007
36016		0.086303	-0.567866	-0.030616	-0.818011	-7.728213	-69.119548	-162.627200
36017		0.086281	-0.567896	-0.030596	-0.817994	-7.731813	-69.123462	-162.627075
36018		0.086303	-0.567925	-0.030617	-0.817971	-7.732746	-69.127579	-162.622671
36019		0.086353	-0.567959	-0.030632	-0.817941	-7.740776	-69.132122	-162.609324
36020		0.086368	-0.567993	-0.030658	-0.817914	-7.739701	-69.137203	-162.607071
36021		0.086368	-0.568023	-0.030654	-0.817894	-7.743383	-69.141112	-162.603774
36022		0.086397	-0.568049	-0.030697	-0.817872	-7.739618	-69.145271	-162.601646
36023		0.086309	-0.568087	-0.030660	-0.817856	-7.736428	-69.150502	-162.615287
36024		0.086327	-0.568110	-0.030674	-0.817837	-7.737889	-69.153776	-162.611228
36025		0.086406	-0.568138	-0.030733	-0.817807	-7.739403	-69.158159	-162.598331
36026		0.086430	-0.568171	-0.030771	-0.817780	-7.736704	-69.163207	-162.595981
36027		0.086537	-0.568208	-0.030852	-0.817740	-7.738572	-69.168883	-162.578674
36028		0.086531	-0.568255	-0.030876	-0.817707	-7.735074	-69.175935	-162.580845
36029		0.086530	-0.568278	-0.030862	-0.817692	-7.740406	-69.178704	-162.576775
36030		0.086550	-0.568293	-0.030892	-0.817678	-7.737694	-69.181177	-162.575338
36031		0.086593	-0.568310	-0.030914	-0.817661	-7.741395	-69.183597	-162.566391
36032		0.086645	-0.568340	-0.030977	-0.817633	-7.736923	-69.188459	-162.561350
36033		0.086732	-0.568365	-0.031066	-0.817602	-7.732041	-69.192963	-162.551824
36034		0.086780	-0.568389	-0.031123	-0.817578	-7.728096	-69.196983	-162.547129
36035		0.086779	-0.568393	-0.031152	-0.817575	-7.720693	-69.198084	-162.552237
36036		0.086827	-0.568375	-0.031188	-0.817581	-7.718746	-69.195982	-162.547207
36037		0.086943	-0.568337	-0.031264	-0.817592	-7.717244	-69.191274	-162.532749
36038		0.086975	-0.568313	-0.031301	-0.817604	-7.711263	-69.188523	-162.532941
36039		0.086901	-0.568285	-0.031225	-0.817634	-7.715122	-69.183843	-162.541452
36040		0.086906	-0.568263	-0.031199	-0.817650	-7.720721	-69.180194	-162.537506
36041		0.086896	-0.568250	-0.031172	-0.817661	-7.724966	-69.177917	-162.536248
36042		0.086891	-0.568254	-0.031137	-0.817660	-7.733270	-69.177768	-162.531258
36043		0.086813	-0.568275	-0.031093	-0.817655	-7.732190	-69.180521	-162.542540
36044		0.086759	-0.568297	-0.031020	-0.817649	-7.742956	-69.182446	-162.542258
36045		0.086656	-0.568326	-0.030924	-0.817643	-7.751451	-69.185318	-162.550275
36046		0.086546	-0.568388	-0.030885	-0.817613	-7.746662	-69.194113	-162.567565
36047		0.086575	-0.568421	-0.030887	-0.817587	-7.754430	-69.198302	-162.557247
36048		0.086506	-0.568440	-0.030843	-0.817583	-7.754433	-69.200588	-162.566635
36049		0.086357	-0.568426	-0.030730	-0.817613	-7.755446	-69.197705	-162.587310
36050		0.086281	-0.568438	-0.030690	-0.817614	-7.752887	-69.199225	-162.599434
36051		0.086164	-0.568455	-0.030622	-0.817617	-7.750493	-69.201230	-162.617086
36052		0.086128	-0.568486	-0.030575	-0.817601	-7.758554	-69.204817	-162.616036
36053		0.086088	-0.568506	-0.030540	-0.817593	-7.762137	-69.207165	-162.618661
36054		0.086055	-0.568542	-0.030499	-0.817572	-7.769660	-69.211600	-162.617271
36055		0.086023	-0.568582	-0.030486	-0.817548	-7.770422	-69.217090	-162.620336
36056		0.086030	-0.568602	-0.030472	-0.817534	-7.777121	-69.219480	-162.614327
36057		0.086060	-0.568619	-0.030496	-0.817518	-7.777741	-69.221935	-162.609254
36058		0.086096	-0.568637	-0.030497	-0.817502	-7.785778	-69.224051	-162.598150
36059		0.086157	-0.568662	-0.030539	-0.817477	-7.788075	-69.227756	-162.587373
36060		0.086237	-0.568681	-0.030574	-0.817453	-7.795288	-69.230407	-162.570739
36061		0.086357	-0.568679	-0.030630	-0.817440	-7.802514	-69.230144	-162.548966
36062		0.086434	-0.568687	-0.030711	-0.817423	-7.796235	-69.232238	-162.542166
36063		0.086497	-0.568698	-0.030754	-0.817407	-7.797555	-69.234029	-162.532130
36064		0.086574	-0.568691	-0.030807	-0.817403	-7.797453	-69.233385	-162.521463
36065		0.086618	-0.568688	-0.030824	-0.817399	-7.800846	-69.233013	-162.513044
36066		0.086694	-0.568690	-0.030851	-0.817389	-7.808023	-69.233091	-162.497345
36067		0.086738	-0.568690	-0.030857	-0.817383	-7.814606	-69.232857	-162.486613
36068		0.086803	-0.568682	-0.030919	-0.817380	-7.809903	-69.232421	-162.480859
36069		0.086932	-0.568698	-0.030999	-0.817352	-7.814063	-69.235034	-162.459382
36070		0.086992	-0.568709	-0.031057	-0.817336	-7.810994	-69.237217	-162.452803
36071		0.087059	-0.568711	-0.031111	-0.817326	-7.809368	-69.237916	-162.444426
36072		0.087119	-0.568709	-0.031167	-0.817318	-7.805736	-69.238371	-162.438439
36073		0.087172	-0.568697	-0.031211	-0.817319	-7.803147	-69.237071	-162.433020
36074		0.087206	-0.568700	-0.031231	-0.817313	-7.804398	-69.237633	-162.427315
36075		0.087225	-0.568685	-0.031269	-0.817320	-7.796665	-69.236219	-162.430305
36076		0.087266	-0.568632	-0.031289	-0.817351	-7.794600	-69.228971	-162.427198
36077		0.087375	-0.568582	-0.031358	-0.817372	-7.792453	-69.222592	-162.414496
36078		0.087376	-0.568573	-0.031382	-0.817377	-7.785622	-69.221864	-162.419254
36079		0.087409	-0.568583	-0.031410	-0.817366	-7.785177	-69.223523	-162.414725
36080		0.087417	-0.568620	-0.031414	-0.817339	-7.788781	-69.228588	-162.410183
36081		0.087416	-0.568656	-0.031418	-0.817314	-7.790757	-69.233554	-162.408007
36082		0.087418	-0.568660	-0.031433	-0.817310	-7.787577	-69.234475	-162.409783
36083		0.087478	-0.568665	-0.031476	-0.817299	-7.787914	-69.235366	-162.400975
36084		0.087492	-0.568641	-0.031463	-0.817315	-7.791845	-69.231686	-162.396971
36085		0.087505	-0.568633	-0.031472	-0.817318	-7.791161	-69.230791	-162.395743
36086		0.087492	-0.568630	-0.031452	-0.817323	-7.793797	-69.229964	-162.395884
36087		0.087425	-0.568640	-0.031420	-0.817324	-7.790767	-69.231378	-162.407099
36088		0.087447	-0.568681	-0.031442	-0.817292	-7.792195	-69.237261	-162.402129
36089		0.087433	-0.568726	-0.031458	-0.817261	-7.789493	-69.243837	-162.404739
36090		0.087455	-0.568771	-0.031509	-0.817226	-7.784158	-69.250742	-162.404245
36091		0.087538	-0.568835	-0.031588	-0.817170	-7.784267	-69.260394	-162.390756
36092		0.087578	-0.568871	-0.031598	-0.817140	-7.792287	-69.265108	-162.378735
36093		0.087594	-0.568911	-0.031628	-0.817109	-7.790625	-69.271116	-162.376691
36094		0.087631	-0.568936	-0.031684	-0.817086	-7.785094	-69.275292	-162.374557
36095		0.087653	-0.568958	-0.031702	-0.817067	-7.786289	-69.278498	-162.370190
36096		0.087708	-0.568964	-0.031753	-0.817055	-7.783682	-69.279857	-162.364004
36097		0.087714	-0.568968	-0.031766	-0.817051	-7.781844	-69.280684	-162.364281
36098		0.087753	-0.568965	-0.031792	-0.817048	-7.781954	-69.280378	-162.358859
36099		0.087800	-0.568949	-0.031838	-0.817053	-7.777378	-69.278711	-162.355732
36100		0.087848	-0.568919	-0.031873	-0.817067	-7.774721	-69.274909	-162.351417
36101		0.087946	-0.568885	-0.031913	-0.817078	-7.779342	-69.270305	-162.335337
36102		0.088001	-0.568888	-0.031937	-0.817069	-7.783486	-69.270647	-162.324681
36103		0.088068	-0.568895	-0.031950	-0.817057	-7.792932	-69.271208	-162.308572
36104		0.088112	-0.568894	-0.031945	-0.817053	-7.802371	-69.270643	-162.295929
36105		0.088212	-0.568907	-0.031996	-0.817031	-7.808761	-69.272526	-162.277080
36106		0.088237	-0.568912	-0.032004	-0.817024	-7.811600	-69.273138	-162.271490
36107		0.088232	-0.568903	-0.032002	-0.817031	-7.810522	-69.271913	-162.273151
36108		0.088244	-0.568917	-0.031993	-0.817021	-7.816109	-69.273438	-162.267384
36109		0.088292	-0.568928	-0.032008	-0.817008	-7.821801	-69.274809	-162.256417
36110		0.088252	-0.568960	-0.032009	-0.816989	-7.816941	-69.279602	-162.264577
36111		0.088311	-0.568973	-0.032059	-0.816972	-7.816050	-69.281959	-162.256504
36112		0.088241	-0.569005	-0.032017	-0.816959	-7.816662	-69.285996	-162.265244
36113		0.088285	-0.569049	-0.032064	-0.816921	-7.816490	-69.292639	-162.257928
36114		0.088204	-0.569093	-0.032022	-0.816901	-7.816183	-69.298530	-162.268568
36115		0.088169	-0.569143	-0.032015	-0.816871	-7.815784	-69.305434	-162.272510
36116		0.088127	-0.569178	-0.031935	-0.816854	-7.831817	-69.308880	-162.266604
36117		0.088140	-0.569213	-0.031926	-0.816828	-7.839822	-69.313408	-162.258402
36118		0.088096	-0.569237	-0.031892	-0.816818	-7.842265	-69.316326	-162.262418
36119		0.088043	-0.569266	-0.031841	-0.816805	-7.848466	-69.319730	-162.264970
36120		0.088015	-0.569257	-0.031811	-0.816815	-7.850149	-69.318180	-162.267952
36121		0.088035	-0.569236	-0.031819	-0.816828	-7.850233	-69.315291	-162.265550
36122		0.088036	-0.569224	-0.031815	-0.816836	-7.850100	-69.313556	-162.265878
36123		0.087998	-0.569221	-0.031779	-0.816844	-7.852460	-69.312702	-162.269640
36124		0.088029	-0.569194	-0.031790	-0.816859	-7.853065	-69.308963	-162.265502
36125		0.087970	-0.569189	-0.031756	-0.816870	-7.850336	-69.308057	-162.275826
36126		0.087980	-0.569159	-0.031736	-0.816891	-7.854770	-69.303532	-162.272191
36127		0.088001	-0.569146	-0.031753	-0.816897	-7.853216	-69.301886	-162.270683
36128		0.087998	-0.569145	-0.031761	-0.816897	-7.850522	-69.301976	-162.272832
36129		0.088063	-0.569122	-0.031826	-0.816904	-7.843674	-69.299653	-162.268938
36130		0.088023	-0.569113	-0.031806	-0.816915	-7.840759	-69.298316	-162.276832
36131		0.087912	-0.569099	-0.031733	-0.816940	-7.837808	-69.295892	-162.294930
36132		0.087879	-0.569074	-0.031734	-0.816961	-7.829559	-69.292879	-162.305764
36133		0.087750	-0.569061	-0.031667	-0.816986	-7.822015	-69.290888	-162.329527
36134		0.087733	-0.569055	-0.031667	-0.816992	-7.818385	-69.290248	-162.334512
36135		0.087811	-0.569056	-0.031734	-0.816981	-7.815410	-69.291069	-162.325532
36136		0.087775	-0.569094	-0.031742	-0.816958	-7.809980	-69.296720	-162.333367
36137		0.087745	-0.569120	-0.031735	-0.816943	-7.808706	-69.300390	-162.337728
36138		0.087708	-0.569167	-0.031717	-0.816915	-7.810621	-69.306745	-162.340471
36139		0.087693	-0.569213	-0.031707	-0.816885	-7.814080	-69.312970	-162.339180
36140		0.087672	-0.569201	-0.031701	-0.816896	-7.810984	-69.311481	-162.344510
36141		0.087691	-0.569201	-0.031689	-0.816895	-7.817412	-69.310922	-162.337504
36142		0.087670	-0.569192	-0.031710	-0.816902	-7.807522	-69.310462	-162.347333
36143		0.087712	-0.569188	-0.031759	-0.816899	-7.801924	-69.310497	-162.345446
36144		0.087747	-0.569170	-0.031805	-0.816906	-7.795181	-69.308638	-162.345476
36145		0.087712	-0.569177	-0.031823	-0.816904	-7.784414	-69.310310	-162.357663
36146		0.087766	-0.569211	-0.031905	-0.816871	-7.776065	-69.316173	-162.354817
36147		0.087819	-0.569262	-0.031975	-0.816827	-7.771951	-69.324177	-162.348880
36148		0.087899	-0.569282	-0.032011	-0.816803	-7.779042	-69.326861	-162.332298
36149		0.087991	-0.569309	-0.032074	-0.816772	-7.781900	-69.331004	-162.316681
36150		0.088039	-0.569340	-0.032068	-0.816745	-7.795061	-69.334664	-162.300050
36151		0.088219	-0.569336	-0.032183	-0.816724	-7.798110	-69.334889	-162.272597
36152		0.088264	-0.569339	-0.032206	-0.816716	-7.800748	-69.335354	-162.264440
36153		0.088337	-0.569316	-0.032239	-0.816723	-7.803656	-69.332228	-162.252657
36154		0.088402	-0.569292	-0.032272	-0.816731	-7.804971	-69.329078	-162.243148
36155		0.088410	-0.569306	-0.032289	-0.816720	-7.803148	-69.331297	-162.243004
36156		0.088427	-0.569304	-0.032312	-0.816719	-7.800236	-69.331249	-162.242611
36157		0.088519	-0.569293	-0.032370	-0.816714	-7.801300	-69.330235	-162.229139
36158		0.088557	-0.569306	-0.032425	-0.816699	-7.795092	-69.332713	-162.227663
36159		0.088665	-0.569290	-0.032494	-0.816696	-7.795472	-69.330985	-162.212634
36160		0.088687	-0.569280	-0.032522	-0.816699	-7.791438	-69.330059	-162.212511
36161		0.088781	-0.569273	-0.032603	-0.816690	-7.787347	-69.330000	-162.202148
36162		0.088820	-0.569270	-0.032629	-0.816687	-7.787370	-69.329714	-162.196769
36163		0.088896	-0.569261	-0.032682	-0.816683	-7.786973	-69.328894	-162.186498
36164		0.088952	-0.569254	-0.032732	-0.816680	-7.783670	-69.328553	-162.180986
36165		0.088976	-0.569248	-0.032727	-0.816682	-7.788959	-69.327293	-162.174145
36166		0.089009	-0.569264	-0.032749	-0.816666	-7.790659	-69.329624	-162.167893
36167		0.089115	-0.569271	-0.032817	-0.816647	-7.793192	-69.331025	-162.151073
36168		0.089146	-0.569285	-0.032849	-0.816632	-7.791754	-69.333451	-162.147248
36169		0.089158	-0.569286	-0.032851	-0.816631	-7.793573	-69.333410	-162.144376
36170		0.089184	-0.569282	-0.032886	-0.816629	-7.788969	-69.333346	-162.143930
36171		0.089203	-0.569275	-0.032905	-0.816631	-7.786902	-69.332743	-162.142793
36172		0.089208	-0.569260	-0.032935	-0.816640	-7.778778	-69.331191	-162.147946
36173		0.089224	-0.569245	-0.032921	-0.816649	-7.784025	-69.328685	-162.142518
36174		0.089227	-0.569263	-0.032928	-0.816636	-7.784435	-69.331292	-162.141322
36175		0.089229	-0.569292	-0.032942	-0.816615	-7.783402	-69.335523	-162.141081
36176		0.089238	-0.569313	-0.032918	-0.816600	-7.793223	-69.337849	-162.132601
36177		0.089270	-0.569345	-0.032922	-0.816574	-7.800707	-69.342001	-162.122169
36178		0.089267	-0.569392	-0.032899	-0.816543	-7.810209	-69.347914	-162.114950
36179		0.089296	-0.569440	-0.032898	-0.816506	-7.820053	-69.354097	-162.102928
36180		0.089238	-0.569491	-0.032904	-0.816477	-7.812225	-69.361755	-162.115133
36181		0.089166	-0.569533	-0.032806	-0.816459	-7.828031	-69.366132	-162.113445
36182		0.089038	-0.569612	-0.032744	-0.816420	-7.827268	-69.376791	-162.130077
36183		0.088997	-0.569660	-0.032672	-0.816395	-7.842739	-69.382053	-162.124024
36184		0.088954	-0.569693	-0.032602	-0.816378	-7.855765	-69.385578	-162.120408
36185		0.088973	-0.569722	-0.032613	-0.816356	-7.858825	-69.389469	-162.114975
36186		0.089014	-0.569739	-0.032638	-0.816339	-7.861391	-69.391974	-162.106871
36187		0.088988	-0.569746	-0.032656	-0.816336	-7.852710	-69.393538	-162.116330
36188		0.088979	-0.569739	-0.032669	-0.816341	-7.847044	-69.393040	-162.121620
36189		0.088884	-0.569742	-0.032611	-0.816352	-7.844607	-69.393004	-162.136773
36190		0.088877	-0.569778	-0.032636	-0.816326	-7.840043	-69.398597	-162.139964
36191		0.088847	-0.569818	-0.032646	-0.816301	-7.835278	-69.404558	-162.146369
36192		0.088865	-0.569860	-0.032682	-0.816269	-7.832951	-69.410840	-162.144409
36193		0.088822	-0.569885	-0.032663	-0.816257	-7.831975	-69.414279	-162.150531
36194		0.088819	-0.569923	-0.032667	-0.816230	-7.833804	-69.419633	-162.148741
36195		0.088865	-0.569934	-0.032685	-0.816217	-7.838669	-69.420982	-162.138533
36196		0.088896	-0.569964	-0.032710	-0.816192	-7.840398	-69.425310	-162.132243
36197		0.088914	-0.569976	-0.032723	-0.816181	-7.841428	-69.427111	-162.128754
36198		0.088983	-0.569982	-0.032802	-0.816166	-7.834315	-69.428933	-162.123610
36199		0.089022	-0.569976	-0.032846	-0.816164	-7.829494	-69.428706	-162.121587
36200		0.089093	-0.569995	-0.032916	-0.816140	-7.826158	-69.432141	-162.113328
36201		0.089102	-0.570029	-0.032962	-0.816113	-7.818660	-69.437708	-162.116379
36202		0.089153	-0.570075	-0.033020	-0.816074	-7.816828	-69.444687	-162.109274
36203		0.089124	-0.570119	-0.033035	-0.816045	-7.811435	-69.451367	-162.115958
36204		0.089159	-0.570139	-0.033038	-0.816028	-7.819012	-69.453716	-162.105270
36205		0.089137	-0.570165	-0.033033	-0.816012	-7.818399	-69.457359	-162.108196
36206		0.089126	-0.570192	-0.033023	-0.815995	-7.821450	-69.460951	-162.106947
36207		0.089086	-0.570215	-0.033002	-0.815984	-7.821230	-69.464070	-162.112206
36208		0.089098	-0.570208	-0.033019	-0.815987	-7.818404	-69.463373	-162.112626
36209		0.089043	-0.570197	-0.032987	-0.816001	-7.815748	-69.461722	-162.122456
36210		0.089046	-0.570191	-0.032992	-0.816005	-7.814697	-69.461004	-162.122826
36211		0.088947	-0.570191	-0.032923	-0.816019	-7.814223	-69.460353	-162.137173
36212		0.088937	-0.570209	-0.032939	-0.816007	-7.809699	-69.463321	-162.141248
36213		0.088836	-0.570253	-0.032873	-0.815989	-7.812001	-69.468913	-162.152872
36214		0.088834	-0.570267	-0.032873	-0.815980	-7.812704	-69.470788	-162.152295
36215		0.088741	-0.570296	-0.032830	-0.815971	-7.809415	-69.474715	-162.166942
36216		0.088712	-0.570325	-0.032805	-0.815956	-7.812816	-69.478383	-162.168094
36217		0.088736	-0.570350	-0.032828	-0.815935	-7.813347	-69.482085	-162.163713
36218		0.088694	-0.570366	-0.032811	-0.815929	-7.811539	-69.484231	-162.170424
36219		0.088683	-0.570362	-0.032810	-0.815933	-7.809291	-69.483773	-162.173680
36220		0.088652	-0.570368	-0.032821	-0.815931	-7.801327	-69.485196	-162.183272
36221		0.088567	-0.570368	-0.032791	-0.815942	-7.793114	-69.485291	-162.201015
36222		0.088587	-0.570356	-0.032793	-0.815948	-7.795520	-69.483497	-162.196782
36223		0.088565	-0.570356	-0.032814	-0.815949	-7.785899	-69.484219	-162.206473
36224		0.088561	-0.570369	-0.032825	-0.815941	-7.783399	-69.486206	-162.208391
36225		0.088549	-0.570375	-0.032831	-0.815937	-7.780077	-69.487341	-162.212246
36226		0.088532	-0.570396	-0.032824	-0.815925	-7.780527	-69.490168	-162.213781
36227		0.088471	-0.570408	-0.032766	-0.815925	-7.785300	-69.491211	-162.218910
36228		0.088456	-0.570430	-0.032749	-0.815912	-7.788955	-69.493921	-162.217948
36229		0.088459	-0.570442	-0.032753	-0.815903	-7.789554	-69.495621	-162.216875
36230		0.088465	-0.570467	-0.032767	-0.815885	-7.789061	-69.499244	-162.215723
36231		0.088534	-0.570497	-0.032812	-0.815854	-7.792902	-69.503762	-162.202494
36232		0.088554	-0.570502	-0.032843	-0.815848	-7.788882	-69.504807	-162.202342
36233		0.088573	-0.570514	-0.032875	-0.815836	-7.785021	-69.507020	-162.202005
36234		0.088560	-0.570540	-0.032875	-0.815819	-7.784876	-69.510722	-162.203246
36235		0.088513	-0.570575	-0.032850	-0.815801	-7.785816	-69.515325	-162.208396
36236		0.088447	-0.570611	-0.032814	-0.815784	-7.786103	-69.520145	-162.216554
36237		0.088345	-0.570658	-0.032727	-0.815765	-7.793912	-69.525683	-162.224476
36238		0.088259	-0.570691	-0.032659	-0.815754	-7.798347	-69.529593	-162.232824
36239		0.088167	-0.570730	-0.032567	-0.815741	-7.808712	-69.533784	-162.237710
36240		0.088098	-0.570745	-0.032495	-0.815741	-7.816033	-69.534885	-162.242064
36241		0.088159	-0.570760	-0.032535	-0.815722	-7.818198	-69.537254	-162.231604
36242		0.088135	-0.570777	-0.032571	-0.815711	-7.805811	-69.540538	-162.243134
36243		0.088077	-0.570760	-0.032570	-0.815730	-7.793850	-69.538697	-162.259937
36244		0.088040	-0.570718	-0.032562	-0.815763	-7.785330	-69.533157	-162.271982
36245		0.087975	-0.570682	-0.032533	-0.815797	-7.777591	-69.528240	-162.287508
36246		0.087941	-0.570670	-0.032536	-0.815809	-7.769636	-69.527042	-162.298013
36247		0.087922	-0.570666	-0.032543	-0.815813	-7.763988	-69.526869	-162.304610
36248		0.087930	-0.570670	-0.032582	-0.815808	-7.755325	-69.528117	-162.309406
36249		0.087923	-0.570673	-0.032612	-0.815805	-7.746542	-69.529285	-162.316272
36250		0.087940	-0.570698	-0.032629	-0.815786	-7.747481	-69.532802	-162.312663
36251		0.087963	-0.570709	-0.032669	-0.815774	-7.742087	-69.534951	-162.312861
36252		0.088016	-0.570713	-0.032695	-0.815764	-7.745576	-69.535577	-162.302853
36253		0.087987	-0.570729	-0.032656	-0.815757	-7.751866	-69.537233	-162.302176
36254		0.088007	-0.570737	-0.032715	-0.815747	-7.740831	-69.539368	-162.306727
36255		0.088116	-0.570715	-0.032826	-0.815747	-7.729961	-69.537677	-162.299377
36256		0.088154	-0.570691	-0.032879	-0.815757	-7.721242	-69.535267	-162.300548
36257		0.088187	-0.570693	-0.032921	-0.815751	-7.716701	-69.536042	-162.298954
36258		0.088209	-0.570701	-0.032969	-0.815740	-7.708881	-69.538058	-162.300994
36259		0.088293	-0.570702	-0.033023	-0.815728	-7.710602	-69.538520	-162.287915
36260		0.088312	-0.570719	-0.033055	-0.815713	-7.707168	-69.541282	-162.287118
36261		0.088317	-0.570731	-0.033056	-0.815704	-7.708940	-69.542985	-162.284890
36262		0.088312	-0.570731	-0.033076	-0.815704	-7.702658	-69.543335	-162.289908
36263		0.088373	-0.570719	-0.033094	-0.815705	-7.708372	-69.541505	-162.277613
36264		0.088413	-0.570692	-0.033108	-0.815719	-7.709882	-69.537876	-162.271567
36265		0.088408	-0.570659	-0.033118	-0.815742	-7.703590	-69.533622	-162.277413
36266		0.088461	-0.570641	-0.033179	-0.815746	-7.695721	-69.531975	-162.275819
36267		0.088604	-0.570607	-0.033317	-0.815749	-7.683456	-69.528873	-162.264821
36268		0.088665	-0.570546	-0.033369	-0.815783	-7.675893	-69.521045	-162.262918
36269		0.088671	-0.570497	-0.033371	-0.815817	-7.672211	-69.514418	-162.265863
36270		0.088681	-0.570435	-0.033375	-0.815859	-7.667702	-69.505877	-162.269018
36271		0.088689	-0.570412	-0.033399	-0.815873	-7.660952	-69.503176	-162.273054
36272		0.088681	-0.570431	-0.033405	-0.815860	-7.659644	-69.506006	-162.274598
36273		0.088690	-0.570466	-0.033411	-0.815835	-7.662664	-69.510774	-162.270375
36274		0.088692	-0.570497	-0.033420	-0.815812	-7.663365	-69.515239	-162.268845
36275		0.088731	-0.570513	-0.033441	-0.815796	-7.666443	-69.517560	-162.260889
36276		0.088734	-0.570520	-0.033448	-0.815791	-7.665993	-69.518555	-162.260600
36277		0.088850	-0.570546	-0.033522	-0.815757	-7.670441	-69.522562	-162.240459
36278		0.088807	-0.570548	-0.033514	-0.815761	-7.664855	-69.523083	-162.250265
36279		0.088755	-0.570554	-0.033515	-0.815762	-7.655304	-69.524457	-162.264045
36280		0.088702	-0.570569	-0.033506	-0.815758	-7.648860	-69.526812	-162.275681
36281		0.088658	-0.570576	-0.033490	-0.815758	-7.645720	-69.527862	-162.283823
36282		0.088603	-0.570574	-0.033462	-0.815767	-7.642502	-69.527498	-162.293880
36283		0.088624	-0.570573	-0.033468	-0.815764	-7.644845	-69.527325	-162.289235
36284		0.088591	-0.570558	-0.033443	-0.815780	-7.643920	-69.525026	-162.295005
36285		0.088490	-0.570554	-0.033369	-0.815797	-7.643994	-69.523772	-162.309378
36286		0.088463	-0.570558	-0.033331	-0.815798	-7.649455	-69.523860	-162.309254
36287		0.088433	-0.570559	-0.033327	-0.815801	-7.644874	-69.524173	-162.316613
36288		0.088413	-0.570578	-0.033341	-0.815789	-7.638929	-69.527209	-162.323091
36289		0.088364	-0.570609	-0.033333	-0.815773	-7.634622	-69.531729	-162.332141
36290		0.088347	-0.570616	-0.033336	-0.815770	-7.631305	-69.532918	-162.336751
36291		0.088373	-0.570627	-0.033367	-0.815759	-7.628954	-69.534770	-162.334444
36292		0.088364	-0.570620	-0.033380	-0.815764	-7.623292	-69.534233	-162.339713
36293		0.088359	-0.570607	-0.033388	-0.815773	-7.619262	-69.532646	-162.343463
36294		0.088350	-0.570609	-0.033374	-0.815773	-7.621184	-69.532753	-162.343417
36295		0.088400	-0.570583	-0.033417	-0.815784	-7.617199	-69.529622	-162.339644
36296		0.088414	-0.570551	-0.033431	-0.815805	-7.613260	-69.525413	-162.341244
36297		0.088419	-0.570512	-0.033441	-0.815830	-7.608492	-69.520337	-162.344725
36298		0.088403	-0.570482	-0.033439	-0.815853	-7.603461	-69.516318	-162.351184
36299		0.088372	-0.570441	-0.033419	-0.815886	-7.599331	-69.510555	-162.359448
36300		0.088368	-0.570411	-0.033408	-0.815908	-7.598939	-69.506326	-162.360963
36301		0.088355	-0.570388	-0.033391	-0.815927	-7.598932	-69.502856	-162.363424
36302		0.088359	-0.570373	-0.033422	-0.815935	-7.590347	-69.501459	-162.369036
36303		0.088341	-0.570379	-0.033443	-0.815932	-7.581960	-69.502945	-162.377194
36304		0.088345	-0.570389	-0.033477	-0.815923	-7.574520	-69.505017	-162.381567
36305		0.088313	-0.570410	-0.033468	-0.815912	-7.572896	-69.507915	-162.386595
36306		0.088292	-0.570437	-0.033456	-0.815896	-7.574534	-69.511592	-162.387758
36307		0.088280	-0.570447	-0.033426	-0.815892	-7.580827	-69.512392	-162.384939
36308		0.088191	-0.570470	-0.033406	-0.815886	-7.571266	-69.515906	-162.403586
36309		0.088145	-0.570475	-0.033372	-0.815889	-7.572256	-69.516313	-162.409208
36310		0.088120	-0.570455	-0.033331	-0.815907	-7.576576	-69.512932	-162.410323
36311		0.088016	-0.570423	-0.033260	-0.815944	-7.573185	-69.508044	-162.428082
36312		0.088020	-0.570379	-0.033270	-0.815974	-7.567261	-69.502192	-162.432735
36313		0.088073	-0.570349	-0.033333	-0.815987	-7.558304	-69.498900	-162.432078
36314		0.088086	-0.570341	-0.033350	-0.815990	-7.555528	-69.498152	-162.432420
36315		0.088054	-0.570362	-0.033344	-0.815979	-7.552888	-69.501152	-162.438153
36316		0.088040	-0.570384	-0.033327	-0.815966	-7.556556	-69.503855	-162.437157
36317		0.087996	-0.570403	-0.033238	-0.815961	-7.573152	-69.504993	-162.431534
36318		0.087986	-0.570417	-0.033226	-0.815952	-7.575652	-69.506831	-162.430863
36319		0.088050	-0.570411	-0.033251	-0.815949	-7.580880	-69.505917	-162.418283
36320		0.088063	-0.570392	-0.033266	-0.815961	-7.577531	-69.503432	-162.419245
36321		0.087971	-0.570365	-0.033208	-0.815992	-7.573205	-69.499370	-162.435875
36322		0.087995	-0.570332	-0.033224	-0.816011	-7.570717	-69.495047	-162.435007
36323		0.088055	-0.570285	-0.033242	-0.816037	-7.573141	-69.488375	-162.426119
36324		0.088098	-0.570250	-0.033272	-0.816055	-7.570319	-69.483954	-162.422830
36325		0.088215	-0.570234	-0.033358	-0.816051	-7.568339	-69.482403	-162.407970
36326		0.088219	-0.570231	-0.033390	-0.816051	-7.560349	-69.482729	-162.412934
36327		0.088217	-0.570245	-0.033385	-0.816042	-7.562569	-69.484512	-162.411324
36328		0.088240	-0.570276	-0.033398	-0.816017	-7.566147	-69.488757	-162.404861
36329		0.088275	-0.570286	-0.033425	-0.816005	-7.566323	-69.490443	-162.399633
36330		0.088320	-0.570291	-0.033439	-0.815996	-7.571618	-69.491011	-162.389509
36331		0.088367	-0.570270	-0.033457	-0.816005	-7.573685	-69.488111	-162.381969
36332		0.088429	-0.570260	-0.033494	-0.816003	-7.574876	-69.486948	-162.372524
36333		0.088492	-0.570227	-0.033529	-0.816018	-7.574710	-69.482554	-162.364556
36334		0.088548	-0.570197	-0.033578	-0.816031	-7.569532	-69.478997	-162.360985
36335		0.088647	-0.570165	-0.033652	-0.816040	-7.565992	-69.475286	-162.350185
36336		0.088662	-0.570146	-0.033657	-0.816051	-7.565847	-69.472686	-162.348649
36337		0.088735	-0.570158	-0.033697	-0.816033	-7.570132	-69.474535	-162.335064
36338		0.088752	-0.570183	-0.033713	-0.816014	-7.571127	-69.478010	-162.331351
36339		0.088743	-0.570196	-0.033699	-0.816006	-7.574230	-69.479599	-162.330177
36340		0.088785	-0.570186	-0.033732	-0.816007	-7.572568	-69.478633	-162.325615
36341		0.088822	-0.570163	-0.033748	-0.816018	-7.573260	-69.475431	-162.320468
36342		0.088841	-0.570111	-0.033766	-0.816052	-7.567596	-69.468597	-162.322982
36343		0.088774	-0.570085	-0.033726	-0.816079	-7.563454	-69.464800	-162.335963
36344		0.088791	-0.570071	-0.033748	-0.816086	-7.559530	-69.463172	-162.336595
36345		0.088715	-0.570064	-0.033700	-0.816101	-7.557293	-69.461849	-162.349065
36346		0.088715	-0.570052	-0.033698	-0.816110	-7.556894	-69.460217	-162.349649
36347		0.088644	-0.570057	-0.033648	-0.816116	-7.557188	-69.460468	-162.359355
36348		0.088651	-0.570053	-0.033631	-0.816119	-7.562576	-69.459491	-162.354695
36349		0.088679	-0.570054	-0.033637	-0.816115	-7.566453	-69.459473	-162.348043
36350		0.088679	-0.570055	-0.033636	-0.816114	-7.566632	-69.459575	-162.348001
36351		0.088664	-0.570061	-0.033596	-0.816113	-7.574965	-69.459700	-162.344172
36352		0.088660	-0.570044	-0.033586	-0.816126	-7.575155	-69.457198	-162.345060
36353		0.088606	-0.570016	-0.033547	-0.816153	-7.573067	-69.453062	-162.354863
36354		0.088620	-0.569967	-0.033531	-0.816186	-7.575544	-69.446009	-162.352412
36355		0.088641	-0.569937	-0.033543	-0.816204	-7.573821	-69.441959	-162.351257
36356		0.088624	-0.569932	-0.033544	-0.816210	-7.569980	-69.441404	-162.356430
36357		0.088538	-0.569911	-0.033482	-0.816236	-7.568440	-69.438000	-162.370178
36358		0.088526	-0.569899	-0.033488	-0.816246	-7.563432	-69.436576	-162.375676
36359		0.088517	-0.569888	-0.033468	-0.816255	-7.566200	-69.434822	-162.375232
36360		0.088547	-0.569875	-0.033482	-0.816261	-7.566898	-69.432975	-162.370940
36361		0.088624	-0.569866	-0.033527	-0.816256	-7.568930	-69.432061	-162.358820
36362		0.088663	-0.569877	-0.033545	-0.816244	-7.572216	-69.433579	-162.350822
36363		0.088603	-0.569891	-0.033508	-0.816242	-7.572021	-69.435208	-162.359103
36364		0.088623	-0.569894	-0.033539	-0.816236	-7.568100	-69.436174	-162.358789
36365		0.088596	-0.569897	-0.033532	-0.816237	-7.565062	-69.436659	-162.364647
36366		0.088655	-0.569894	-0.033563	-0.816232	-7.567440	-69.436331	-162.354845
36367		0.088633	-0.569883	-0.033547	-0.816243	-7.566607	-69.434676	-162.358723
36368		0.088629	-0.569866	-0.033538	-0.816256	-7.566801	-69.432171	-162.359610
36369		0.088652	-0.569849	-0.033535	-0.816265	-7.570495	-69.429599	-162.354206
36370		0.088656	-0.569827	-0.033510	-0.816281	-7.575887	-69.426014	-162.350486
36371		0.088705	-0.569787	-0.033498	-0.816304	-7.584655	-69.419848	-162.338527
36372		0.088723	-0.569756	-0.033491	-0.816324	-7.587117	-69.415392	-162.335150
36373		0.088673	-0.569732	-0.033464	-0.816347	-7.582845	-69.412001	-162.345680
36374		0.088686	-0.569696	-0.033450	-0.816371	-7.585893	-69.406677	-162.342610
36375		0.088666	-0.569701	-0.033421	-0.816371	-7.590061	-69.406876	-162.342548
36376		0.088595	-0.569703	-0.033358	-0.816380	-7.593593	-69.406434	-162.350070
36377		0.088565	-0.569710	-0.033313	-0.816380	-7.600356	-69.406796	-162.349558
36378		0.088491	-0.569694	-0.033241	-0.816402	-7.603894	-69.403749	-162.358013
36379		0.088471	-0.569627	-0.033200	-0.816453	-7.605274	-69.393849	-162.361588
36380		0.088404	-0.569580	-0.033120	-0.816497	-7.609663	-69.386354	-162.369159
36381		0.088333	-0.569538	-0.033075	-0.816535	-7.604681	-69.380359	-162.383628
36382		0.088293	-0.569471	-0.033003	-0.816589	-7.610171	-69.370042	-162.387257
36383		0.088213	-0.569436	-0.032918	-0.816626	-7.614653	-69.364181	-162.396327
36384		0.088159	-0.569405	-0.032859	-0.816655	-7.617291	-69.359286	-162.402965
36385		0.088161	-0.569395	-0.032860	-0.816662	-7.616745	-69.357897	-162.403224
36386		0.088113	-0.569426	-0.032821	-0.816648	-7.620527	-69.361685	-162.406734
36387		0.087984	-0.569455	-0.032747	-0.816644	-7.618622	-69.365368	-162.425417
36388		0.087983	-0.569465	-0.032719	-0.816638	-7.626333	-69.366122	-162.420123
36389		0.087934	-0.569484	-0.032672	-0.816632	-7.631328	-69.368141	-162.423120
36390		0.087917	-0.569475	-0.032644	-0.816641	-7.634452	-69.366501	-162.423656
36391		0.087860	-0.569450	-0.032567	-0.816668	-7.641769	-69.361931	-162.427338
36392		0.087864	-0.569427	-0.032542	-0.816684	-7.647148	-69.358340	-162.423629
36393		0.087856	-0.569407	-0.032544	-0.816700	-7.643470	-69.355611	-162.427864
36394		0.087889	-0.569360	-0.032570	-0.816728	-7.638660	-69.349512	-162.427609
36395		0.087904	-0.569329	-0.032636	-0.816745	-7.621879	-69.346500	-162.437666
36396		0.087965	-0.569292	-0.032691	-0.816762	-7.615565	-69.342023	-162.434363
36397		0.087974	-0.569275	-0.032698	-0.816773	-7.613944	-69.339795	-162.434541
36398		0.088017	-0.569256	-0.032758	-0.816779	-7.604793	-69.338133	-162.435170
36399		0.088067	-0.569234	-0.032806	-0.816787	-7.599662	-69.335613	-162.432127
36400		0.088125	-0.569217	-0.032847	-0.816791	-7.598273	-69.333633	-162.425411
36401		0.088187	-0.569221	-0.032866	-0.816780	-7.605100	-69.334070	-162.411825
36402		0.088209	-0.569235	-0.032860	-0.816769	-7.611885	-69.335577	-162.403800
36403		0.088241	-0.569227	-0.032846	-0.816771	-7.620714	-69.333895	-162.393371
36404		0.088316	-0.569229	-0.032876	-0.816760	-7.627078	-69.334196	-162.378375
36405		0.088400	-0.569218	-0.032968	-0.816755	-7.617728	-69.333880	-162.373157
36406		0.088467	-0.569214	-0.033012	-0.816749	-7.618343	-69.333519	-162.363360
36407		0.088538	-0.569196	-0.033066	-0.816752	-7.615824	-69.331673	-162.355531
36408		0.088558	-0.569196	-0.033069	-0.816749	-7.618862	-69.331543	-162.350576
36409		0.088644	-0.569193	-0.033121	-0.816740	-7.620848	-69.331426	-162.337156
36410		0.088674	-0.569179	-0.033135	-0.816746	-7.621551	-69.329553	-162.332840
36411		0.088732	-0.569179	-0.033197	-0.816737	-7.616270	-69.330343	-162.328157
36412		0.088745	-0.569172	-0.033214	-0.816740	-7.613557	-69.329554	-162.328401
36413		0.088760	-0.569168	-0.033237	-0.816740	-7.609956	-69.329353	-162.328831
36414		0.088756	-0.569167	-0.033257	-0.816741	-7.603828	-69.329648	-162.333636
36415		0.088775	-0.569173	-0.033285	-0.816733	-7.600725	-69.330910	-162.332876
36416		0.088791	-0.569145	-0.033317	-0.816750	-7.593096	-69.327613	-162.336514
36417		0.088831	-0.569105	-0.033372	-0.816771	-7.582682	-69.323022	-162.339018
36418		0.088821	-0.569046	-0.033400	-0.816812	-7.568482	-69.315704	-162.351539
36419		0.088778	-0.568992	-0.033387	-0.816855	-7.559207	-69.308374	-162.365374
36420		0.088732	-0.568963	-0.033369	-0.816880	-7.553183	-69.304556	-162.376596
36421		0.088701	-0.568938	-0.033345	-0.816903	-7.551598	-69.300779	-162.382779
36422		0.088654	-0.568931	-0.033301	-0.816915	-7.553649	-69.299366	-162.388168
36423		0.088630	-0.568933	-0.033267	-0.816917	-7.558407	-69.299124	-162.388229
36424		0.088615	-0.568928	-0.033257	-0.816922	-7.557790	-69.298451	-162.390881
36425		0.088570	-0.568919	-0.033207	-0.816935	-7.561705	-69.296584	-162.394803
36426		0.088554	-0.568927	-0.033199	-0.816932	-7.561669	-69.297649	-162.396826
36427		0.088505	-0.568924	-0.033167	-0.816940	-7.560404	-69.297049	-162.404733
36428		0.088509	-0.568918	-0.033172	-0.816944	-7.559453	-69.296259	-162.404956
36429		0.088512	-0.568891	-0.033210	-0.816961	-7.547815	-69.293323	-162.413190
36430		0.088517	-0.568876	-0.033241	-0.816970	-7.539379	-69.291862	-162.418603
36431		0.088436	-0.568875	-0.033186	-0.816982	-7.538593	-69.291300	-162.430614
36432		0.088407	-0.568869	-0.033196	-0.816989	-7.530243	-69.290939	-162.440578
36433		0.088389	-0.568848	-0.033182	-0.817005	-7.528765	-69.288064	-162.444627
36434		0.088350	-0.568828	-0.033149	-0.817025	-7.528601	-69.284987	-162.450618
36435		0.088291	-0.568788	-0.033104	-0.817061	-7.526001	-69.279069	-162.461700
36436		0.088270	-0.568761	-0.033068	-0.817083	-7.529218	-69.274882	-162.463143
36437		0.088212	-0.568752	-0.033010	-0.817099	-7.532902	-69.272903	-162.469086
36438		0.088199	-0.568753	-0.033017	-0.817099	-7.528609	-69.273238	-162.473842
36439		0.088177	-0.568759	-0.032976	-0.817099	-7.535910	-69.273512	-162.471827
36440		0.088141	-0.568766	-0.032925	-0.817100	-7.543180	-69.273676	-162.471704
36441		0.088066	-0.568762	-0.032855	-0.817114	-7.546934	-69.272285	-162.479911
36442		0.088005	-0.568764	-0.032793	-0.817121	-7.552022	-69.271846	-162.484952
36443		0.088036	-0.568770	-0.032746	-0.817116	-7.570466	-69.271366	-162.467941
36444		0.088005	-0.568757	-0.032699	-0.817130	-7.576006	-69.268926	-162.468758
36445		0.087992	-0.568700	-0.032660	-0.817173	-7.578815	-69.260415	-162.470136
36446		0.087997	-0.568665	-0.032633	-0.817197	-7.583641	-69.255101	-162.467050
36447		0.088019	-0.568640	-0.032644	-0.817212	-7.582832	-69.251649	-162.464996
36448		0.088020	-0.568616	-0.032640	-0.817229	-7.581941	-69.248287	-162.466140
36449		0.087962	-0.568581	-0.032599	-0.817261	-7.579075	-69.243258	-162.477100
36450		0.087921	-0.568582	-0.032551	-0.817267	-7.583798	-69.242678	-162.479714
36451		0.087846	-0.568579	-0.032476	-0.817280	-7.589167	-69.241354	-162.486724
36452		0.087836	-0.568577	-0.032435	-0.817284	-7.598047	-69.240390	-162.482069
36453		0.087804	-0.568569	-0.032397	-0.817294	-7.601201	-69.238789	-162.484623
36454		0.087795	-0.568559	-0.032382	-0.817303	-7.602637	-69.237173	-162.485137
36455		0.087817	-0.568521	-0.032391	-0.817327	-7.601165	-69.231934	-162.484078
36456		0.087817	-0.568484	-0.032385	-0.817352	-7.599711	-69.226842	-162.485847
36457		0.087741	-0.568446	-0.032322	-0.817390	-7.598834	-69.220955	-162.498179
36458		0.087705	-0.568414	-0.032277	-0.817417	-7.601266	-69.216044	-162.502359
36459		0.087630	-0.568384	-0.032194	-0.817449	-7.606530	-69.210933	-162.510082
36460		0.087594	-0.568331	-0.032184	-0.817491	-7.597833	-69.203753	-162.522463
36461		0.087603	-0.568294	-0.032217	-0.817515	-7.587841	-69.199290	-162.528911
36462		0.087582	-0.568271	-0.032209	-0.817533	-7.584207	-69.196185	-162.534879
36463		0.087511	-0.568247	-0.032179	-0.817558	-7.576931	-69.193000	-162.550463
36464		0.087498	-0.568247	-0.032187	-0.817559	-7.572675	-69.193336	-162.555186
36465		0.087453	-0.568262	-0.032163	-0.817555	-7.571938	-69.195237	-162.561605
36466		0.087454	-0.568280	-0.032181	-0.817541	-7.569031	-69.198030	-162.562976
36467		0.087447	-0.568265	-0.032198	-0.817552	-7.561957	-69.196437	-162.569257
36468		0.087497	-0.568266	-0.032245	-0.817544	-7.559131	-69.197082	-162.563992
36469		0.087495	-0.568238	-0.032276	-0.817563	-7.548427	-69.193878	-162.572257
36470		0.087509	-0.568221	-0.032319	-0.817571	-7.538367	-69.192435	-162.577592
36471		0.087498	-0.568208	-0.032316	-0.817581	-7.536148	-69.190711	-162.581017
36472		0.087510	-0.568185	-0.032303	-0.817597	-7.539806	-69.187114	-162.577302
36473		0.087483	-0.568150	-0.032267	-0.817625	-7.541021	-69.181856	-162.581231
36474		0.087495	-0.568101	-0.032262	-0.817659	-7.540429	-69.174912	-162.581175
36475		0.087558	-0.568028	-0.032282	-0.817701	-7.540783	-69.164926	-162.573778
36476		0.087584	-0.567984	-0.032286	-0.817729	-7.540983	-69.158712	-162.570988
36477		0.087593	-0.567930	-0.032303	-0.817765	-7.533532	-69.151699	-162.576151
36478		0.087635	-0.567917	-0.032309	-0.817769	-7.538764	-69.149559	-162.566979
36479		0.087662	-0.567926	-0.032342	-0.817759	-7.535857	-69.151255	-162.564910
36480		0.087681	-0.567929	-0.032383	-0.817753	-7.528933	-69.152292	-162.566863
36481		0.087731	-0.567941	-0.032435	-0.817738	-7.525679	-69.154579	-162.561792
36482		0.087743	-0.567946	-0.032453	-0.817732	-7.523627	-69.155522	-162.561336
36483		0.087840	-0.567926	-0.032512	-0.817733	-7.524493	-69.153158	-162.547577
36484		0.087833	-0.567882	-0.032520	-0.817764	-7.517449	-69.147445	-162.554431
36485		0.087837	-0.567860	-0.032507	-0.817779	-7.519746	-69.144140	-162.552858
36486		0.087837	-0.567836	-0.032502	-0.817796	-7.518918	-69.140789	-162.553956
36487		0.087892	-0.567804	-0.032556	-0.817810	-7.512635	-69.137054	-162.551176
36488		0.087919	-0.567776	-0.032589	-0.817826	-7.506590	-69.133655	-162.552242
36489		0.087945	-0.567755	-0.032596	-0.817837	-7.507722	-69.130705	-162.548237
36490		0.087960	-0.567749	-0.032603	-0.817840	-7.508247	-69.129811	-162.545978
36491		0.087899	-0.567762	-0.032535	-0.817840	-7.515595	-69.130727	-162.549235
36492		0.087900	-0.567754	-0.032560	-0.817844	-7.508509	-69.130187	-162.554201
36493		0.087903	-0.567739	-0.032574	-0.817853	-7.504634	-69.128455	-162.556646
36494		0.087927	-0.567753	-0.032557	-0.817842	-7.514484	-69.129808	-162.546236
36495		0.087969	-0.567737	-0.032601	-0.817847	-7.509307	-69.128062	-162.544252
36496		0.087979	-0.567737	-0.032602	-0.817846	-7.510988	-69.128041	-162.541684
36497		0.088006	-0.567722	-0.032623	-0.817852	-7.509153	-69.126194	-162.539547
36498		0.088006	-0.567698	-0.032619	-0.817869	-7.508338	-69.122846	-162.540635
36499		0.088028	-0.567664	-0.032604	-0.817891	-7.513261	-69.117681	-162.535053
36500		0.088013	-0.567609	-0.032598	-0.817931	-7.507429	-69.110264	-162.542514
36501		0.088009	-0.567575	-0.032612	-0.817955	-7.500461	-69.105838	-162.548541
36502		0.088017	-0.567567	-0.032567	-0.817961	-7.512659	-69.103767	-162.539403
36503		0.087950	-0.567554	-0.032520	-0.817979	-7.511431	-69.101652	-162.550001
36504		0.087964	-0.567544	-0.032498	-0.817986	-7.518781	-69.099678	-162.543252
36505		0.088059	-0.567515	-0.032553	-0.817993	-7.519631	-69.096006	-162.529985
36506		0.088076	-0.567497	-0.032547	-0.818004	-7.522724	-69.093275	-162.525935
36507		0.088078	-0.567478	-0.032571	-0.818016	-7.515434	-69.091200	-162.531083
36508		0.088103	-0.567471	-0.032579	-0.818018	-7.517355	-69.090181	-162.526394
36509		0.088130	-0.567446	-0.032603	-0.818032	-7.514030	-69.086990	-162.525452
36510		0.088134	-0.567436	-0.032579	-0.818039	-7.520004	-69.085146	-162.521113
36511		0.088144	-0.567405	-0.032600	-0.818058	-7.513821	-69.081237	-162.524571
36512		0.088140	-0.567392	-0.032619	-0.818067	-7.507370	-69.079848	-162.529810
36513		0.088079	-0.567376	-0.032580	-0.818086	-7.504696	-69.077542	-162.540703
36514		0.088048	-0.567376	-0.032535	-0.818091	-7.510797	-69.076844	-162.540903
36515		0.088039	-0.567382	-0.032491	-0.818090	-7.521003	-69.076850	-162.535054
36516		0.088023	-0.567365	-0.032490	-0.818103	-7.516873	-69.074621	-162.540628
36517		0.087995	-0.567343	-0.032476	-0.818123	-7.513365	-69.071546	-162.547489
36518		0.088006	-0.567356	-0.032468	-0.818112	-7.518724	-69.073141	-162.541890
36519		0.087966	-0.567386	-0.032438	-0.818097	-7.521691	-69.076857	-162.544800
36520		0.087991	-0.567404	-0.032449	-0.818082	-7.524738	-69.079292	-162.538860
36521		0.088010	-0.567409	-0.032466	-0.818075	-7.524311	-69.080220	-162.536296
36522		0.088018	-0.567409	-0.032477	-0.818074	-7.522909	-69.080318	-162.536102
36523		0.088070	-0.567404	-0.032479	-0.818072	-7.531443	-69.079221	-162.523139
36524		0.088074	-0.567398	-0.032483	-0.818076	-7.530628	-69.078463	-162.523264
36525		0.088088	-0.567431	-0.032510	-0.818050	-7.528880	-69.083454	-162.521681
36526		0.088085	-0.567507	-0.032518	-0.817998	-7.532581	-69.093930	-162.517747
36527		0.088092	-0.567641	-0.032529	-0.817903	-7.542131	-69.112351	-162.507012
36528		0.088057	-0.567784	-0.032556	-0.817806	-7.540853	-69.132829	-162.509232
36529		0.088040	-0.567932	-0.032609	-0.817703	-7.536296	-69.154268	-162.511165
36530		0.087943	-0.568109	-0.032645	-0.817590	-7.524177	-69.179962	-162.528707
36531		0.087817	-0.568289	-0.032681	-0.817476	-7.506847	-69.206503	-162.553882
36532		0.087667	-0.568502	-0.032684	-0.817344	-7.496296	-69.236958	-162.577187
36533		0.087507	-0.568719	-0.032731	-0.817208	-7.473027	-69.269007	-162.610250
36534		0.087272	-0.568965	-0.032748	-0.817062	-7.445590	-69.305058	-162.656299
36535		0.087018	-0.569252	-0.032706	-0.816891	-7.433726	-69.345613	-162.693341
36536		0.086751	-0.569572	-0.032677	-0.816697	-7.418573	-69.391150	-162.733615
36537		0.086477	-0.569926	-0.032651	-0.816481	-7.403935	-69.441386	-162.773781
36538		0.086281	-0.570323	-0.032711	-0.816221	-7.385100	-69.498718	-162.804785
36539		0.086127	-0.570774	-0.032799	-0.815919	-7.371000	-69.563612	-162.825377
36540		0.085956	-0.571303	-0.032902	-0.815562	-7.356145	-69.639619	-162.846986
36541		0.085787	-0.571910	-0.033037	-0.815149	-7.339517	-69.726914	-162.867781
36542		0.085595	-0.572608	-0.033109	-0.814676	-7.343136	-69.825828	-162.875570
36543		0.085348	-0.573328	-0.033135	-0.814195	-7.350085	-69.927143	-162.888457
36544		0.085158	-0.574009	-0.033177	-0.813733	-7.360389	-70.023101	-162.891792
36545		0.085009	-0.574605	-0.033213	-0.813326	-7.373294	-70.106911	-162.889493
36546		0.084872	-0.575113	-0.033211	-0.812981	-7.391091	-70.177855	-162.884262
36547		0.084764	-0.575607	-0.033198	-0.812643	-7.416429	-70.246378	-162.869895
36548		0.084598	-0.576136	-0.033116	-0.812290	-7.452197	-70.318747	-162.855684
36549		0.084508	-0.576664	-0.033079	-0.811925	-7.490765	-70.391405	-162.828554
36550		0.084359	-0.577234	-0.033000	-0.811539	-7.533228	-70.469461	-162.806102
36551		0.084248	-0.577834	-0.032974	-0.811124	-7.571545	-70.552498	-162.780259
36552		0.084051	-0.578494	-0.032865	-0.810679	-7.621587	-70.642700	-162.756799
36553		0.083754	-0.579218	-0.032650	-0.810201	-7.686557	-70.740683	-162.735447
36554		0.083480	-0.579949	-0.032436	-0.809715	-7.757270	-70.839396	-162.706388
36555		0.083145	-0.580620	-0.032157	-0.809279	-7.828211	-70.929123	-162.687320
36556		0.082862	-0.581199	-0.031906	-0.808903	-7.894223	-71.006272	-162.666406
36557		0.082591	-0.581763	-0.031648	-0.808535	-7.963620	-71.081197	-162.641643
36558		0.082230	-0.582293	-0.031327	-0.808203	-8.029198	-71.151018	-162.633257
36559		0.081859	-0.582808	-0.030968	-0.807883	-8.102350	-71.218171	-162.621160
36560		0.081490	-0.583289	-0.030629	-0.807586	-8.167609	-71.281035	-162.615019
36561		0.081131	-0.583738	-0.030301	-0.807310	-8.228732	-71.339597	-162.611369
36562		0.080788	-0.584140	-0.030001	-0.807065	-8.281156	-71.392198	-162.612546
36563		0.080428	-0.584532	-0.029697	-0.806828	-8.329882	-71.443564	-162.619158
36564		0.080132	-0.584931	-0.029477	-0.806577	-8.369373	-71.496984	-162.622862
36565		0.079874	-0.585337	-0.029234	-0.806316	-8.424453	-71.550627	-162.609709
36566		0.079587	-0.585742	-0.028999	-0.806059	-8.470747	-71.604594	-162.607043
36567		0.079373	-0.586129	-0.028753	-0.805808	-8.534268	-71.655042	-162.582049
36568		0.079140	-0.586469	-0.028482	-0.805593	-8.596476	-71.698703	-162.561909
36569		0.078959	-0.586767	-0.028245	-0.805402	-8.655911	-71.736799	-162.537348
36570		0.078893	-0.587027	-0.028088	-0.805225	-8.713170	-71.770006	-162.498897
36571		0.078974	-0.587278	-0.028061	-0.805034	-8.763865	-71.803270	-162.444113
36572		0.079033	-0.587531	-0.028019	-0.804846	-8.814217	-71.836665	-162.392774
36573		0.079196	-0.587791	-0.028077	-0.804638	-8.859075	-71.872070	-162.330141
36574		0.079331	-0.588124	-0.028131	-0.804379	-8.907052	-71.917833	-162.267138
36575		0.079465	-0.588513	-0.028130	-0.804081	-8.976835	-71.970126	-162.187084
36576		0.079716	-0.588890	-0.028210	-0.803777	-9.047390	-72.021221	-162.089956
36577		0.080025	-0.589204	-0.028331	-0.803512	-9.112655	-72.063730	-161.989878
36578		0.080316	-0.589450	-0.028441	-0.803299	-9.170231	-72.096847	-161.899714
36579		0.080570	-0.589637	-0.028528	-0.803133	-9.220419	-72.121794	-161.821747
36580		0.080878	-0.589820	-0.028655	-0.802963	-9.270382	-72.146382	-161.736226
36581		0.081182	-0.590077	-0.028809	-0.802738	-9.319920	-72.181842	-161.649433
36582		0.081514	-0.590382	-0.028983	-0.802474	-9.375030	-72.223985	-161.553259
36583		0.081909	-0.590689	-0.029195	-0.802200	-9.434061	-72.266693	-161.444870
36584		0.082286	-0.591020	-0.029397	-0.801911	-9.494619	-72.312494	-161.337271
36585		0.082667	-0.591363	-0.029596	-0.801611	-9.559047	-72.360055	-161.225666
36586		0.083036	-0.591750	-0.029765	-0.801281	-9.635005	-72.412977	-161.106124
36587		0.083333	-0.592188	-0.029875	-0.800922	-9.719064	-72.472530	-160.989313
36588		0.083655	-0.592693	-0.030001	-0.800510	-9.812524	-72.541293	-160.859912
36589		0.084007	-0.593193	-0.030149	-0.800098	-9.906472	-72.609466	-160.725666
36590		0.084271	-0.593644	-0.030263	-0.799730	-9.985784	-72.671300	-160.616022
36591		0.084534	-0.594076	-0.030355	-0.799379	-10.069993	-72.729756	-160.503342
36592		0.084760	-0.594515	-0.030411	-0.799026	-10.157877	-72.788910	-160.393017
36593		0.084975	-0.594925	-0.030441	-0.798697	-10.248399	-72.843564	-160.283067
36594		0.085255	-0.595282	-0.030513	-0.798398	-10.335097	-72.891117	-160.167961
36595		0.085510	-0.595654	-0.030585	-0.798090	-10.418599	-72.940930	-160.058253
36596		0.085727	-0.596010	-0.030618	-0.797800	-10.503591	-72.988086	-159.953246
36597		0.085913	-0.596341	-0.030643	-0.797532	-10.580816	-73.031920	-159.859249
36598		0.086077	-0.596626	-0.030620	-0.797302	-10.662767	-73.068468	-159.766135
36599		0.086148	-0.596934	-0.030543	-0.797067	-10.742450	-73.108212	-159.687506
36600		0.086242	-0.597278	-0.030475	-0.796801	-10.829851	-73.152726	-159.598488
36601		0.086332	-0.597658	-0.030414	-0.796509	-10.919568	-73.202342	-159.507004
36602		0.086440	-0.597973	-0.030389	-0.796262	-10.994198	-73.243731	-159.426044
36603		0.086592	-0.598206	-0.030393	-0.796070	-11.060009	-73.273850	-159.347783
36604		0.086757	-0.598387	-0.030384	-0.795917	-11.125773	-73.296344	-159.269514
36605		0.086918	-0.598540	-0.030378	-0.795784	-11.186459	-73.315094	-159.196323
36606		0.087072	-0.598620	-0.030371	-0.795707	-11.235744	-73.323826	-159.135028
36607		0.087332	-0.598661	-0.030414	-0.795646	-11.289324	-73.326849	-159.056629
36608		0.087456	-0.598732	-0.030390	-0.795581	-11.335764	-73.334221	-159.002068
36609		0.087564	-0.598824	-0.030345	-0.795500	-11.387533	-73.344340	-158.945212
36610		0.087616	-0.598908	-0.030271	-0.795435	-11.434133	-73.353167	-158.900572
36611		0.087634	-0.598936	-0.030165	-0.795416	-11.474801	-73.354001	-158.867149
36612		0.087659	-0.598925	-0.030096	-0.795424	-11.500286	-73.350301	-158.845246
36613		0.087828	-0.598852	-0.030112	-0.795459	-11.525220	-73.338341	-158.804895
36614		0.087967	-0.598751	-0.030146	-0.795519	-11.533424	-73.323261	-158.782262
36615		0.088111	-0.598667	-0.030188	-0.795564	-11.542722	-73.310778	-158.757543
36616		0.088268	-0.598575	-0.030249	-0.795614	-11.548226	-73.297332	-158.733993
36617		0.088453	-0.598503	-0.030327	-0.795645	-11.557872	-73.286790	-158.702578
36618		0.088649	-0.598453	-0.030422	-0.795657	-11.568085	-73.279575	-158.668275
36619		0.088904	-0.598417	-0.030548	-0.795651	-11.584674	-73.274272	-158.620351
36620		0.089139	-0.598348	-0.030642	-0.795673	-11.601320	-73.263884	-158.576581
36621		0.089523	-0.598229	-0.030844	-0.795711	-11.613263	-73.247235	-158.516142
36622		0.089787	-0.598078	-0.030972	-0.795790	-11.614953	-73.226106	-158.482032
36623		0.090069	-0.597954	-0.031138	-0.795845	-11.613304	-73.209313	-158.446689
36624		0.090276	-0.597848	-0.031255	-0.795897	-11.611147	-73.194785	-158.421922
36625		0.090545	-0.597730	-0.031438	-0.795948	-11.602106	-73.179483	-158.393619
36626		0.090775	-0.597625	-0.031588	-0.795994	-11.595731	-73.165745	-158.368618
36627		0.091040	-0.597511	-0.031782	-0.796042	-11.582510	-73.151390	-158.343849
36628		0.091248	-0.597397	-0.031966	-0.796096	-11.559659	-73.137659	-158.334359
36629		0.091379	-0.597248	-0.032062	-0.796189	-11.540425	-73.117809	-158.334648
36630		0.091517	-0.597103	-0.032167	-0.796278	-11.520257	-73.098672	-158.334540
36631		0.091643	-0.596990	-0.032258	-0.796344	-11.506549	-73.083866	-158.330217
36632		0.091690	-0.596907	-0.032305	-0.796399	-11.491588	-73.073044	-158.337302
36633		0.091760	-0.596804	-0.032400	-0.796464	-11.465136	-73.060353	-158.349986
36634		0.091709	-0.596686	-0.032409	-0.796558	-11.434321	-73.045166	-158.384164
36635		0.091619	-0.596517	-0.032398	-0.796695	-11.393481	-73.022951	-158.432929
36636		0.091538	-0.596312	-0.032396	-0.796858	-11.347329	-72.995879	-158.485564
36637		0.091434	-0.596093	-0.032384	-0.797035	-11.297285	-72.966840	-158.544794
36638		0.091322	-0.595875	-0.032336	-0.797212	-11.256395	-72.937275	-158.598450
36639		0.091222	-0.595660	-0.032302	-0.797386	-11.214691	-72.908146	-158.650726
36640		0.091073	-0.595435	-0.032214	-0.797574	-11.176925	-72.877079	-158.707622
36641		0.090868	-0.595223	-0.032074	-0.797762	-11.143302	-72.847162	-158.769209
36642		0.090721	-0.594999	-0.031975	-0.797949	-11.109592	-72.815887	-158.822752
36643		0.090540	-0.594757	-0.031842	-0.798156	-11.076274	-72.781601	-158.881503
36644		0.090367	-0.594529	-0.031732	-0.798350	-11.039753	-72.749791	-158.940811
36645		0.090222	-0.594283	-0.031579	-0.798555	-11.020259	-72.714015	-158.984336
36646		0.090019	-0.594018	-0.031420	-0.798782	-10.986777	-72.676381	-159.047107
36647		0.089881	-0.593681	-0.031305	-0.799052	-10.946061	-72.629039	-159.108023
36648		0.089715	-0.593365	-0.031170	-0.799311	-10.908301	-72.584337	-159.169967
36649		0.089511	-0.593060	-0.031025	-0.799566	-10.866264	-72.541505	-159.240124
36650		0.089378	-0.592746	-0.030962	-0.799815	-10.815335	-72.498657	-159.306641
36651		0.089280	-0.592449	-0.030962	-0.800047	-10.755806	-72.459126	-159.373741
36652		0.089137	-0.592209	-0.030944	-0.800241	-10.699033	-72.427635	-159.443282
36653		0.088975	-0.591943	-0.030923	-0.800457	-10.636051	-72.392661	-159.520917
36654		0.088818	-0.591639	-0.030879	-0.800700	-10.576740	-72.351938	-159.596213
36655		0.088572	-0.591326	-0.030763	-0.800963	-10.517600	-72.309259	-159.684514
36656		0.088414	-0.590998	-0.030727	-0.801224	-10.453276	-72.265247	-159.764282
36657		0.088328	-0.590683	-0.030735	-0.801466	-10.393837	-72.223323	-159.829547
36658		0.088161	-0.590400	-0.030664	-0.801695	-10.343844	-72.184796	-159.898619
36659		0.087928	-0.590167	-0.030533	-0.801897	-10.303016	-72.152646	-159.969005
36660		0.087751	-0.589944	-0.030467	-0.802083	-10.256918	-72.122574	-160.034615
36661		0.087566	-0.589712	-0.030359	-0.802278	-10.220734	-72.090473	-160.094536
36662		0.087496	-0.589487	-0.030340	-0.802452	-10.184366	-72.059915	-160.137820
36663		0.087457	-0.589254	-0.030346	-0.802627	-10.146832	-72.028512	-160.177704
36664		0.087440	-0.588983	-0.030397	-0.802826	-10.096582	-71.992794	-160.224698
36665		0.087424	-0.588700	-0.030465	-0.803033	-10.040549	-71.955672	-160.275834
36666		0.087344	-0.588456	-0.030509	-0.803219	-9.982641	-71.924165	-160.336353
36667		0.087221	-0.588251	-0.030519	-0.803381	-9.929764	-71.897850	-160.398195
36668		0.087176	-0.588070	-0.030592	-0.803516	-9.878099	-71.875200	-160.447201
36669		0.087179	-0.587876	-0.030687	-0.803654	-9.829482	-71.850723	-160.487467
36670		0.087183	-0.587651	-0.030748	-0.803816	-9.787530	-71.821270	-160.523618
36671		0.087267	-0.587378	-0.030812	-0.804004	-9.756289	-71.784285	-160.542151
36672		0.087293	-0.587061	-0.030761	-0.804234	-9.740786	-71.739160	-160.559128
36673		0.087298	-0.586710	-0.030667	-0.804494	-9.729213	-71.688615	-160.577330
36674		0.087366	-0.586366	-0.030620	-0.804739	-9.718624	-71.639476	-160.585479
36675		0.087474	-0.586058	-0.030651	-0.804950	-9.698459	-71.596605	-160.593736
36676		0.087520	-0.585839	-0.030692	-0.805103	-9.672217	-71.567039	-160.612289
36677		0.087515	-0.585635	-0.030790	-0.805248	-9.620811	-71.541360	-160.655737
36678		0.087577	-0.585415	-0.030906	-0.805397	-9.576752	-71.513072	-160.684740
36679		0.087668	-0.585179	-0.031047	-0.805553	-9.530267	-71.483040	-160.711660
36680		0.087771	-0.584893	-0.031135	-0.805746	-9.495836	-71.444581	-160.729807
36681		0.087872	-0.584563	-0.031180	-0.805973	-9.468500	-71.399095	-160.744501
36682		0.088030	-0.584197	-0.031191	-0.806221	-9.458629	-71.347274	-160.739761
36683		0.088251	-0.583836	-0.031232	-0.806457	-9.454133	-71.296134	-160.721883
36684		0.088411	-0.583506	-0.031237	-0.806677	-9.450426	-71.249209	-160.711356
36685		0.088508	-0.583243	-0.031238	-0.806857	-9.442034	-71.211963	-160.711114
36686		0.088657	-0.583024	-0.031293	-0.806996	-9.433994	-71.181605	-160.701919
36687		0.088766	-0.582804	-0.031383	-0.807140	-9.407520	-71.152275	-160.711538
36688		0.088948	-0.582568	-0.031536	-0.807284	-9.377307	-71.121432	-160.713710
36689		0.089083	-0.582312	-0.031669	-0.807449	-9.340768	-71.087884	-160.727738
36690		0.089345	-0.581996	-0.031859	-0.807641	-9.307978	-71.045990	-160.722613
36691		0.089660	-0.581662	-0.032041	-0.807839	-9.286700	-71.000959	-160.702248
36692		0.090048	-0.581289	-0.032258	-0.808056	-9.266120	-70.950515	-160.672165
36693		0.090494	-0.580903	-0.032503	-0.808273	-9.248662	-70.898411	-160.631809
36694		0.090978	-0.580514	-0.032774	-0.808488	-9.230784	-70.845994	-160.586618
36695		0.091411	-0.580197	-0.032997	-0.808657	-9.223768	-70.802990	-160.538884
36696		0.091877	-0.579899	-0.033271	-0.808807	-9.211162	-70.763421	-160.489828
36697		0.092306	-0.579657	-0.033521	-0.808921	-9.203337	-70.731418	-160.441129
36698		0.092703	-0.579450	-0.033761	-0.809014	-9.195796	-70.704388	-160.395734
36699		0.093011	-0.579245	-0.033984	-0.809116	-9.175174	-70.678226	-160.372061
36700		0.093317	-0.579049	-0.034214	-0.809212	-9.153051	-70.653401	-160.349663
36701		0.093533	-0.578840	-0.034419	-0.809327	-9.118594	-70.627378	-160.348910
36702		0.093704	-0.578625	-0.034583	-0.809455	-9.085595	-70.599916	-160.353818
36703		0.093816	-0.578370	-0.034703	-0.809619	-9.049091	-70.566706	-160.370673
36704		0.093927	-0.578106	-0.034812	-0.809789	-9.014510	-70.532092	-160.386498
36705		0.093947	-0.577841	-0.034853	-0.809975	-8.980136	-70.496645	-160.415310
36706		0.094036	-0.577588	-0.034931	-0.810142	-8.950672	-70.462931	-160.430326
36707		0.094095	-0.577332	-0.034999	-0.810314	-8.917939	-70.428968	-160.452093
36708		0.094129	-0.577123	-0.035019	-0.810458	-8.898112	-70.400546	-160.467003
36709		0.094161	-0.576915	-0.035071	-0.810601	-8.869226	-70.372992	-160.488563
36710		0.094225	-0.576720	-0.035135	-0.810729	-8.844929	-70.347203	-160.501825
36711		0.094209	-0.576549	-0.035148	-0.810852	-8.821339	-70.324411	-160.525335
36712		0.094253	-0.576381	-0.035200	-0.810964	-8.799068	-70.302243	-160.539222
36713		0.094292	-0.576212	-0.035261	-0.811077	-8.773376	-70.280120	-160.556376
36714		0.094387	-0.576065	-0.035335	-0.811167	-8.757317	-70.260841	-160.558117
36715		0.094497	-0.575940	-0.035441	-0.811238	-8.738042	-70.245159	-160.559293
36716		0.094663	-0.575817	-0.035579	-0.811300	-8.721144	-70.229814	-160.550893
36717		0.094780	-0.575744	-0.035649	-0.811335	-8.717692	-70.220229	-160.538639
36718		0.094927	-0.575657	-0.035739	-0.811376	-8.713553	-70.208903	-160.523066
36719		0.095112	-0.575596	-0.035863	-0.811392	-8.710256	-70.201494	-160.500664
36720		0.095275	-0.575539	-0.035954	-0.811409	-8.712123	-70.194213	-160.477762
36721		0.095479	-0.575474	-0.036069	-0.811426	-8.714370	-70.185842	-160.448960
36722		0.095642	-0.575405	-0.036158	-0.811452	-8.715426	-70.176836	-160.426934
36723		0.095778	-0.575346	-0.036219	-0.811475	-8.719440	-70.168727	-160.406510
36724		0.095906	-0.575283	-0.036259	-0.811503	-8.727199	-70.159690	-160.384689
36725		0.095969	-0.575215	-0.036291	-0.811542	-8.724200	-70.150508	-160.379768
36726		0.096007	-0.575188	-0.036314	-0.811556	-8.722756	-70.146981	-160.376063
36727		0.095991	-0.575187	-0.036314	-0.811558	-8.719634	-70.147033	-160.380565
36728		0.095891	-0.575210	-0.036254	-0.811556	-8.718575	-70.149822	-160.394841
36729		0.095745	-0.575255	-0.036160	-0.811546	-8.719830	-70.155354	-160.413592
36730		0.095532	-0.575333	-0.036027	-0.811522	-8.721797	-70.165044	-160.440273
36731		0.095249	-0.575438	-0.035865	-0.811488	-8.720470	-70.178550	-160.478615
36732		0.094984	-0.575569	-0.035719	-0.811433	-8.721427	-70.195769	-160.511909
36733		0.094721	-0.575704	-0.035576	-0.811373	-8.721930	-70.213745	-160.545260
36734		0.094397	-0.575811	-0.035368	-0.811344	-8.725348	-70.226915	-160.586069
36735		0.094088	-0.575884	-0.035170	-0.811337	-8.725600	-70.235547	-160.627761
36736		0.093763	-0.575912	-0.034936	-0.811365	-8.727701	-70.237317	-160.671851
36737		0.093343	-0.575931	-0.034635	-0.811413	-8.728526	-70.237413	-160.730622
36738		0.092994	-0.575939	-0.034352	-0.811460	-8.737369	-70.235577	-160.774001
36739		0.092628	-0.575944	-0.034058	-0.811510	-8.745688	-70.233371	-160.820096
36740		0.092267	-0.575939	-0.033781	-0.811567	-8.749169	-70.230144	-160.869255
36741		0.091835	-0.575957	-0.033465	-0.811616	-8.751677	-70.229929	-160.928528
36742		0.091478	-0.575957	-0.033194	-0.811667	-8.754908	-70.227606	-160.977076
36743		0.091171	-0.575941	-0.032979	-0.811722	-8.751276	-70.223815	-161.023792
36744		0.090809	-0.575915	-0.032737	-0.811791	-8.743429	-70.218508	-161.081462
36745		0.090446	-0.575848	-0.032484	-0.811889	-8.734339	-70.207470	-161.141180
36746		0.090060	-0.575763	-0.032198	-0.812003	-8.727803	-70.193531	-161.203076
36747		0.089731	-0.575664	-0.031945	-0.812120	-8.722476	-70.177745	-161.256169
36748		0.089348	-0.575522	-0.031668	-0.812274	-8.708596	-70.156186	-161.324161
36749		0.088967	-0.575388	-0.031373	-0.812422	-8.701054	-70.135385	-161.387207
36750		0.088608	-0.575280	-0.031056	-0.812550	-8.706150	-70.117316	-161.437733
36751		0.088252	-0.575180	-0.030743	-0.812671	-8.711657	-70.100448	-161.487115
36752		0.087837	-0.575120	-0.030404	-0.812771	-8.716497	-70.089118	-161.544453
36753		0.087350	-0.575126	-0.030011	-0.812834	-8.728234	-70.086341	-161.605301
36754		0.086904	-0.575181	-0.029657	-0.812856	-8.742357	-70.090842	-161.657335
36755		0.086411	-0.575289	-0.029286	-0.812846	-8.756573	-70.102603	-161.714594
36756		0.085923	-0.575398	-0.028918	-0.812833	-8.771401	-70.114581	-161.770554
36757		0.085537	-0.575509	-0.028612	-0.812806	-8.789387	-70.127208	-161.809955
36758		0.085099	-0.575639	-0.028316	-0.812771	-8.796282	-70.143156	-161.863827
36759		0.084703	-0.575808	-0.028013	-0.812703	-8.817065	-70.163898	-161.901064
36760		0.084315	-0.575996	-0.027744	-0.812619	-8.832046	-70.187891	-161.940640
36761		0.083962	-0.576176	-0.027513	-0.812536	-8.842738	-70.211310	-161.978384
36762		0.083664	-0.576368	-0.027294	-0.812438	-8.862081	-70.236054	-162.002089
36763		0.083403	-0.576561	-0.027089	-0.812334	-8.884878	-70.260808	-162.018040
36764		0.083173	-0.576780	-0.026891	-0.812209	-8.914232	-70.288965	-162.024500
36765		0.083003	-0.577038	-0.026716	-0.812049	-8.952940	-70.322233	-162.014676
36766		0.082788	-0.577336	-0.026524	-0.811866	-8.991276	-70.361228	-162.010393
36767		0.082594	-0.577661	-0.026347	-0.811660	-9.032268	-70.403941	-162.000559
36768		0.082286	-0.578021	-0.026108	-0.811442	-9.071524	-70.451498	-162.007106
36769		0.082049	-0.578361	-0.025901	-0.811231	-9.113913	-70.496075	-162.001961
36770		0.081755	-0.578663	-0.025673	-0.811052	-9.147196	-70.535830	-162.012178
36771		0.081515	-0.578925	-0.025502	-0.810895	-9.171910	-70.570608	-162.021865
36772		0.081235	-0.579145	-0.025284	-0.810773	-9.197510	-70.599169	-162.037672
36773		0.081012	-0.579369	-0.025135	-0.810640	-9.215819	-70.629134	-162.050418
36774		0.080686	-0.579597	-0.024905	-0.810516	-9.236663	-70.659062	-162.075798
36775		0.080217	-0.579875	-0.024580	-0.810374	-9.259565	-70.695385	-162.118811
36776		0.079832	-0.580142	-0.024332	-0.810228	-9.276966	-70.731077	-162.154086
36777		0.079555	-0.580383	-0.024156	-0.810089	-9.293637	-70.763401	-162.175068
36778		0.079166	-0.580607	-0.023897	-0.809973	-9.309175	-70.793071	-162.213327
36779		0.078856	-0.580793	-0.023677	-0.809877	-9.326026	-70.817329	-162.240477
36780		0.078419	-0.580972	-0.023382	-0.809799	-9.337397	-70.840558	-162.289714
36781		0.077975	-0.581131	-0.023083	-0.809737	-9.346335	-70.860985	-162.342204
36782		0.077589	-0.581266	-0.022775	-0.809686	-9.366941	-70.877423	-162.379031
36783		0.077230	-0.581418	-0.022510	-0.809618	-9.383154	-70.896773	-162.414472
36784		0.076884	-0.581578	-0.022251	-0.809543	-9.400927	-70.917233	-162.446748
36785		0.076547	-0.581734	-0.022024	-0.809470	-9.411248	-70.937659	-162.483127
36786		0.076255	-0.581887	-0.021829	-0.809393	-9.421422	-70.957872	-162.513282
36787		0.076043	-0.582028	-0.021688	-0.809315	-9.431668	-70.976746	-162.532381
36788		0.075810	-0.582152	-0.021522	-0.809252	-9.442800	-70.992980	-162.554260
36789		0.075724	-0.582216	-0.021417	-0.809217	-9.460965	-71.000506	-162.551965
36790		0.075534	-0.582281	-0.021279	-0.809191	-9.467038	-71.008769	-162.572994
36791		0.075547	-0.582318	-0.021260	-0.809164	-9.478889	-71.013199	-162.561693
36792		0.075472	-0.582386	-0.021198	-0.809123	-9.487484	-71.022189	-162.564407
36793		0.075432	-0.582472	-0.021180	-0.809066	-9.493130	-71.034083	-162.563755
36794		0.075450	-0.582556	-0.021203	-0.809003	-9.498544	-71.045874	-162.555046
36795		0.075545	-0.582636	-0.021259	-0.808935	-9.510284	-71.056932	-162.530988
36796		0.075628	-0.582734	-0.021313	-0.808855	-9.521996	-71.070604	-162.508209
36797		0.075729	-0.582800	-0.021356	-0.808797	-9.536912	-71.079423	-162.481562
36798		0.075883	-0.582886	-0.021460	-0.808718	-9.548100	-71.091659	-162.449274
36799		0.076131	-0.582935	-0.021614	-0.808655	-9.560331	-71.098757	-162.403956
36800		0.076417	-0.582948	-0.021821	-0.808614	-9.562185	-71.101553	-162.361603
36801		0.076797	-0.582980	-0.022086	-0.808547	-9.568997	-71.107223	-162.301701
36802		0.077145	-0.583039	-0.022310	-0.808466	-9.583642	-71.115976	-162.240073
36803		0.077544	-0.583080	-0.022556	-0.808391	-9.600318	-71.122292	-162.170365
36804		0.077930	-0.583167	-0.022784	-0.808284	-9.624398	-71.134694	-162.095835
36805		0.078316	-0.583236	-0.022996	-0.808191	-9.651407	-71.144196	-162.019768
36806		0.078698	-0.583293	-0.023214	-0.808107	-9.674482	-71.152280	-161.947310
36807		0.079136	-0.583310	-0.023462	-0.808045	-9.696569	-71.154777	-161.868761
36808		0.079559	-0.583340	-0.023695	-0.807975	-9.720963	-71.158947	-161.790366
36809		0.080042	-0.583340	-0.023987	-0.807919	-9.738463	-71.159688	-161.709070
36810		0.080515	-0.583356	-0.024278	-0.807851	-9.755868	-71.162678	-161.628797
36811		0.080955	-0.583393	-0.024531	-0.807773	-9.779077	-71.168151	-161.548472
36812		0.081391	-0.583424	-0.024795	-0.807699	-9.798001	-71.173068	-161.472005
36813		0.081853	-0.583448	-0.025083	-0.807626	-9.814643	-71.177244	-161.393684
36814		0.082246	-0.583476	-0.025311	-0.807558	-9.834667	-71.181579	-161.322488
36815		0.082650	-0.583500	-0.025586	-0.807491	-9.843164	-71.186210	-161.258126
36816		0.082973	-0.583544	-0.025793	-0.807419	-9.856516	-71.193089	-161.201273
36817		0.083393	-0.583574	-0.026048	-0.807346	-9.874691	-71.197918	-161.127548
36818		0.083697	-0.583632	-0.026241	-0.807267	-9.889288	-71.206611	-161.072064
36819		0.083989	-0.583702	-0.026411	-0.807181	-9.909624	-71.216449	-161.013814
36820		0.084181	-0.583788	-0.026538	-0.807094	-9.922807	-71.228822	-160.974538
36821		0.084374	-0.583846	-0.026658	-0.807028	-9.935203	-71.237246	-160.936397
36822		0.084595	-0.583878	-0.026767	-0.806979	-9.953453	-71.241409	-160.891067
36823		0.084751	-0.583909	-0.026826	-0.806937	-9.972640	-71.245185	-160.854233
36824		0.084914	-0.583962	-0.026922	-0.806879	-9.985281	-71.252646	-160.820300
36825		0.085072	-0.584016	-0.027018	-0.806820	-9.996780	-71.260354	-160.787993
36826		0.085188	-0.584062	-0.027071	-0.806772	-10.010840	-71.266505	-160.760025
36827		0.085280	-0.584115	-0.027116	-0.806723	-10.022949	-71.273693	-160.736760
36828		0.085403	-0.584147	-0.027191	-0.806684	-10.030861	-71.278243	-160.712553
36829		0.085503	-0.584199	-0.027259	-0.806634	-10.038112	-71.285719	-160.691646
36830		0.085583	-0.584241	-0.027300	-0.806593	-10.047897	-71.291493	-160.671926
36831		0.085717	-0.584284	-0.027390	-0.806545	-10.055211	-71.297739	-160.646272
36832		0.085845	-0.584308	-0.027470	-0.806511	-10.061790	-71.301409	-160.622559
36833		0.085953	-0.584296	-0.027533	-0.806506	-10.065226	-71.299868	-160.605068
36834		0.086130	-0.584231	-0.027633	-0.806531	-10.066361	-71.291169	-160.580969
36835		0.086285	-0.584167	-0.027719	-0.806558	-10.067406	-71.282444	-160.559914
36836		0.086510	-0.584057	-0.027818	-0.806610	-10.074116	-71.267031	-160.526373
36837		0.086734	-0.583942	-0.027929	-0.806666	-10.076412	-71.251035	-160.496252
36838		0.086970	-0.583854	-0.027993	-0.806702	-10.097245	-71.237595	-160.450471
36839		0.087091	-0.583850	-0.028028	-0.806690	-10.112155	-71.236474	-160.422714
36840		0.087283	-0.583883	-0.028121	-0.806642	-10.129271	-71.240806	-160.382192
36841		0.087497	-0.583902	-0.028280	-0.806600	-10.131072	-71.244409	-160.349699
36842		0.087696	-0.583901	-0.028459	-0.806573	-10.122194	-71.246062	-160.327427
36843		0.087859	-0.583894	-0.028658	-0.806553	-10.099152	-71.247868	-160.320640
36844		0.088015	-0.583855	-0.028797	-0.806559	-10.088318	-71.244008	-160.307117
36845		0.088089	-0.583839	-0.028899	-0.806559	-10.073280	-71.243300	-160.307686
36846		0.088174	-0.583809	-0.029042	-0.806566	-10.047464	-71.241537	-160.314620
36847		0.088249	-0.583818	-0.029142	-0.806548	-10.036139	-71.244181	-160.311631
36848		0.088256	-0.583851	-0.029169	-0.806522	-10.033917	-71.249357	-160.311125
36849		0.088210	-0.583894	-0.029155	-0.806497	-10.033079	-71.255427	-160.316978
36850		0.088161	-0.583960	-0.029131	-0.806455	-10.036848	-71.264451	-160.319356
36851		0.088105	-0.584019	-0.029093	-0.806420	-10.042417	-71.272287	-160.321568
36852		0.088032	-0.584093	-0.029050	-0.806376	-10.047800	-71.282372	-160.325940
36853		0.087976	-0.584133	-0.029047	-0.806353	-10.041294	-71.288397	-160.337374
36854		0.087895	-0.584200	-0.029018	-0.806314	-10.040267	-71.297911	-160.347611
36855		0.087766	-0.584260	-0.028997	-0.806286	-10.025979	-71.307185	-160.374348
36856		0.087652	-0.584315	-0.028972	-0.806259	-10.015754	-71.315630	-160.396215
36857		0.087507	-0.584370	-0.028902	-0.806238	-10.011206	-71.323223	-160.418480
36858		0.087353	-0.584417	-0.028857	-0.806222	-9.997020	-71.330501	-160.449238
36859		0.087161	-0.584459	-0.028805	-0.806214	-9.976749	-71.337424	-160.489736
36860		0.086999	-0.584440	-0.028756	-0.806247	-9.954799	-71.335552	-160.528983
36861		0.086820	-0.584429	-0.028679	-0.806277	-9.937864	-71.334511	-160.567023
36862		0.086639	-0.584409	-0.028578	-0.806314	-9.926874	-71.331620	-160.601230
36863		0.086537	-0.584366	-0.028572	-0.806357	-9.902508	-71.326844	-160.634437
36864		0.086454	-0.584291	-0.028564	-0.806421	-9.879391	-71.317273	-160.664890
36865		0.086437	-0.584208	-0.028591	-0.806481	-9.858965	-71.306818	-160.684339
36866		0.086460	-0.584132	-0.028669	-0.806531	-9.833902	-71.297902	-160.700971
36867		0.086520	-0.584085	-0.028771	-0.806555	-9.812281	-71.293141	-160.709152
36868		0.086571	-0.584064	-0.028893	-0.806561	-9.786440	-71.292548	-160.720739
36869		0.086614	-0.584029	-0.028952	-0.806579	-9.775157	-71.288664	-160.723520
36870		0.086655	-0.584007	-0.029034	-0.806588	-9.758435	-71.287032	-160.730155
36871		0.086717	-0.583986	-0.029106	-0.806594	-9.748674	-71.285050	-160.728851
36872		0.086761	-0.583966	-0.029166	-0.806601	-9.738798	-71.283170	-160.730114
36873		0.086795	-0.583918	-0.029234	-0.806630	-9.721558	-71.277837	-160.738937
36874		0.086873	-0.583842	-0.029348	-0.806672	-9.697303	-71.269153	-160.747219
36875		0.086890	-0.583763	-0.029416	-0.806725	-9.673429	-71.259742	-160.763940
36876		0.086911	-0.583709	-0.029517	-0.806758	-9.643520	-71.254404	-160.783695
36877		0.086875	-0.583678	-0.029565	-0.806783	-9.619515	-71.251741	-160.806693
36878		0.086872	-0.583676	-0.029585	-0.806784	-9.612847	-71.251980	-160.811960
36879		0.086815	-0.583679	-0.029584	-0.806788	-9.601865	-71.253004	-160.827726
36880		0.086734	-0.583662	-0.029545	-0.806811	-9.594243	-71.250666	-160.845297
36881		0.086547	-0.583646	-0.029443	-0.806846	-9.582475	-71.248310	-160.880746
36882		0.086368	-0.583629	-0.029369	-0.806880	-9.564362	-71.246458	-160.919672
36883		0.086136	-0.583615	-0.029270	-0.806919	-9.542950	-71.244906	-160.968391
36884		0.085876	-0.583621	-0.029239	-0.806943	-9.498433	-71.248104	-161.036938
36885		0.085579	-0.583598	-0.029176	-0.806993	-9.452433	-71.247051	-161.112522
36886		0.085307	-0.583534	-0.029174	-0.807068	-9.390262	-71.241362	-161.197212
36887		0.084978	-0.583440	-0.029143	-0.807172	-9.321388	-71.231545	-161.295654
36888		0.084709	-0.583332	-0.029152	-0.807278	-9.251967	-71.219933	-161.386326
36889		0.084464	-0.583209	-0.029160	-0.807393	-9.186403	-71.205985	-161.471251
36890		0.084276	-0.583069	-0.029202	-0.807512	-9.121412	-71.189897	-161.548051
36891		0.084184	-0.582909	-0.029319	-0.807632	-9.053766	-71.171575	-161.613394
36892		0.084084	-0.582712	-0.029414	-0.807782	-8.986354	-71.147702	-161.680884
36893		0.083989	-0.582519	-0.029517	-0.807927	-8.918651	-71.124548	-161.747620
36894		0.083867	-0.582356	-0.029585	-0.808055	-8.858201	-71.104960	-161.812266
36895		0.083696	-0.582184	-0.029605	-0.808196	-8.800444	-71.083698	-161.882169
36896		0.083595	-0.582006	-0.029637	-0.808334	-8.753266	-71.060930	-161.934758
36897		0.083516	-0.581844	-0.029701	-0.808456	-8.703520	-71.040942	-161.985473
36898		0.083513	-0.581703	-0.029809	-0.808554	-8.658675	-71.023973	-162.021399
36899		0.083610	-0.581562	-0.030027	-0.808637	-8.604106	-71.008339	-162.049771
36900		0.083747	-0.581437	-0.030285	-0.808703	-8.548293	-70.995329	-162.072873
36901		0.083824	-0.581305	-0.030542	-0.808780	-8.479596	-70.982038	-162.113816
36902		0.084049	-0.581088	-0.030887	-0.808900	-8.408466	-70.957238	-162.137591
36903		0.084294	-0.580814	-0.031230	-0.809057	-8.336643	-70.924608	-162.160503
36904		0.084539	-0.580532	-0.031543	-0.809223	-8.272506	-70.890025	-162.178216
36905		0.084807	-0.580213	-0.031845	-0.809411	-8.212917	-70.849985	-162.190234
36906		0.085114	-0.579867	-0.032159	-0.809614	-8.155088	-70.806201	-162.196189
36907		0.085450	-0.579546	-0.032485	-0.809796	-8.102717	-70.765750	-162.193426
36908		0.085751	-0.579266	-0.032772	-0.809953	-8.057757	-70.730471	-162.189355
36909		0.086038	-0.578993	-0.033017	-0.810108	-8.022108	-70.695491	-162.180594
36910		0.086315	-0.578789	-0.033227	-0.810215	-8.000868	-70.669307	-162.161300
36911		0.086620	-0.578576	-0.033470	-0.810325	-7.975360	-70.642295	-162.141167
36912		0.086900	-0.578365	-0.033695	-0.810436	-7.949842	-70.615424	-162.124654
36913		0.087099	-0.578133	-0.033871	-0.810573	-7.919587	-70.585458	-162.123521
36914		0.087328	-0.577876	-0.034071	-0.810723	-7.886719	-70.552281	-162.120499
36915		0.087489	-0.577613	-0.034237	-0.810886	-7.849093	-70.518273	-162.130634
36916		0.087690	-0.577360	-0.034410	-0.811038	-7.818360	-70.485296	-162.129981
36917		0.087841	-0.577076	-0.034581	-0.811216	-7.775566	-70.448647	-162.145592
36918		0.087992	-0.576781	-0.034757	-0.811402	-7.730817	-70.410504	-162.162808
36919		0.088121	-0.576482	-0.034900	-0.811594	-7.689872	-70.371356	-162.180684
36920		0.088276	-0.576188	-0.035055	-0.811779	-7.651896	-70.332956	-162.192543
36921		0.088434	-0.575926	-0.035200	-0.811942	-7.619850	-70.298680	-162.198928
36922		0.088630	-0.575688	-0.035341	-0.812083	-7.598760	-70.267258	-162.191746
36923		0.088726	-0.575474	-0.035416	-0.812221	-7.577872	-70.238647	-162.198083
36924		0.088833	-0.575299	-0.035441	-0.812332	-7.576458	-70.214228	-162.188174
36925		0.088833	-0.575174	-0.035398	-0.812423	-7.576751	-70.196094	-162.191254
36926		0.088805	-0.575097	-0.035297	-0.812485	-7.591505	-70.183585	-162.186905
36927		0.088756	-0.575057	-0.035191	-0.812523	-7.607039	-70.176393	-162.184106
36928		0.088594	-0.575057	-0.034989	-0.812549	-7.629718	-70.173474	-162.191420
36929		0.088347	-0.575081	-0.034727	-0.812570	-7.654543	-70.173500	-162.208631
36930		0.088047	-0.575131	-0.034441	-0.812579	-7.677472	-70.177015	-162.234055
36931		0.087621	-0.575218	-0.034075	-0.812579	-7.701226	-70.185062	-162.275876
36932		0.087180	-0.575313	-0.033699	-0.812575	-7.725028	-70.194192	-162.319713
36933		0.086616	-0.575423	-0.033257	-0.812576	-7.744320	-70.205151	-162.383663
36934		0.086032	-0.575551	-0.032788	-0.812567	-7.768481	-70.218225	-162.446543
36935		0.085369	-0.575707	-0.032265	-0.812547	-7.794468	-70.234928	-162.518759
36936		0.084607	-0.575898	-0.031667	-0.812515	-7.824347	-70.255696	-162.601454
36937		0.083761	-0.576137	-0.031011	-0.812458	-7.857997	-70.282883	-162.692089
36938		0.082903	-0.576405	-0.030374	-0.812381	-7.886535	-70.314537	-162.787427
36939		0.082010	-0.576695	-0.029709	-0.812290	-7.917786	-70.349209	-162.885163
36940		0.081085	-0.577042	-0.028984	-0.812162	-7.964174	-70.390844	-162.975420
36941		0.080127	-0.577435	-0.028241	-0.812004	-8.013116	-70.438952	-163.067540
36942		0.079147	-0.577819	-0.027489	-0.811853	-8.059207	-70.485943	-163.164880
36943		0.078112	-0.578189	-0.026723	-0.811715	-8.096943	-70.531528	-163.276208
36944		0.077041	-0.578529	-0.025935	-0.811601	-8.130892	-70.572995	-163.396044
36945		0.075966	-0.578795	-0.025169	-0.811537	-8.151642	-70.604873	-163.527454
36946		0.074899	-0.579024	-0.024446	-0.811495	-8.158395	-70.632662	-163.668598
36947		0.073847	-0.579249	-0.023738	-0.811451	-8.163590	-70.660223	-163.808703
36948		0.072792	-0.579472	-0.023028	-0.811408	-8.168627	-70.687563	-163.949384
36949		0.071872	-0.579718	-0.022385	-0.811333	-8.183957	-70.718142	-164.063237
36950		0.070967	-0.579983	-0.021735	-0.811240	-8.205991	-70.751308	-164.169686
36951		0.070202	-0.580287	-0.021169	-0.811105	-8.236023	-70.790019	-164.249733
36952		0.069553	-0.580556	-0.020664	-0.810981	-8.269244	-70.824059	-164.311857
36953		0.069028	-0.580815	-0.020235	-0.810851	-8.305745	-70.856977	-164.354282
36954		0.068635	-0.581045	-0.019898	-0.810728	-8.340185	-70.886207	-164.380266
36955		0.068368	-0.581255	-0.019670	-0.810606	-8.368326	-70.913627	-164.393202
36956		0.068190	-0.581402	-0.019506	-0.810519	-8.391098	-70.932678	-164.398817
36957		0.068113	-0.581568	-0.019474	-0.810407	-8.399009	-70.955779	-164.399993
36958		0.068028	-0.581776	-0.019372	-0.810268	-8.428533	-70.983419	-164.386200
36959		0.067998	-0.582031	-0.019304	-0.810089	-8.464067	-71.017597	-164.359111
36960		0.068092	-0.582247	-0.019346	-0.809924	-8.490821	-71.047269	-164.321554
36961		0.068285	-0.582433	-0.019493	-0.809771	-8.505587	-71.073765	-164.278991
36962		0.068625	-0.582573	-0.019779	-0.809634	-8.507300	-71.095008	-164.225973
36963		0.069105	-0.582689	-0.020172	-0.809501	-8.505436	-71.113552	-164.156248
36964		0.069658	-0.582742	-0.020612	-0.809404	-8.499547	-71.123625	-164.080424
36965		0.070312	-0.582755	-0.021126	-0.809325	-8.490242	-71.128636	-163.993705
36966		0.071032	-0.582768	-0.021620	-0.809240	-8.500213	-71.132506	-163.883803
36967		0.071926	-0.582746	-0.022252	-0.809159	-8.503535	-71.132568	-163.754823
36968		0.072925	-0.582705	-0.022955	-0.809080	-8.506938	-71.130423	-163.611291
36969		0.074023	-0.582674	-0.023744	-0.808980	-8.507459	-71.130507	-163.455355
36970		0.075205	-0.582654	-0.024577	-0.808860	-8.514264	-71.132215	-163.282691
36971		0.076442	-0.582689	-0.025451	-0.808692	-8.525787	-71.142006	-163.097485
36972		0.077646	-0.582775	-0.026267	-0.808489	-8.552125	-71.158048	-162.904973
36973		0.078828	-0.582922	-0.027099	-0.808241	-8.575827	-71.183317	-162.715624
36974		0.080124	-0.583073	-0.027967	-0.807975	-8.613517	-71.208777	-162.500002
36975		0.081512	-0.583218	-0.028970	-0.807696	-8.632273	-71.235544	-162.284670
36976		0.082925	-0.583321	-0.030002	-0.807440	-8.644159	-71.257074	-162.071530
36977		0.084387	-0.583390	-0.031125	-0.807196	-8.637767	-71.275705	-161.865248
36978		0.085830	-0.583420	-0.032248	-0.806979	-8.624288	-71.289263	-161.667444
36979		0.087253	-0.583414	-0.033368	-0.806785	-8.603824	-71.298500	-161.478508
36980		0.088570	-0.583393	-0.034402	-0.806613	-8.584506	-71.305118	-161.304068
36981		0.089896	-0.583344	-0.035419	-0.806457	-8.569084	-71.307609	-161.126407
36982		0.091157	-0.583278	-0.036362	-0.806322	-8.559237	-71.306925	-160.954402
36983		0.092387	-0.583159	-0.037288	-0.806225	-8.542721	-71.299184	-160.792993
36984		0.093591	-0.583042	-0.038216	-0.806128	-8.520281	-71.292113	-160.639554
36985		0.094740	-0.582918	-0.039100	-0.806041	-8.498241	-71.283853	-160.493741
36986		0.095814	-0.582796	-0.039920	-0.805962	-8.478857	-71.275464	-160.356636
36987		0.096819	-0.582690	-0.040683	-0.805881	-8.462509	-71.268625	-160.227023
36988		0.097736	-0.582560	-0.041408	-0.805827	-8.436524	-71.258693	-160.117297
36989		0.098591	-0.582438	-0.042050	-0.805777	-8.421894	-71.248684	-160.008232
36990		0.099380	-0.582300	-0.042634	-0.805750	-8.407453	-71.235682	-159.909075
36991		0.100108	-0.582150	-0.043173	-0.805739	-8.392091	-71.220876	-159.819629
36992		0.100800	-0.581970	-0.043675	-0.805756	-8.376338	-71.201331	-159.736487
36993		0.101440	-0.581822	-0.044133	-0.805757	-8.365318	-71.185707	-159.656456
36994		0.102004	-0.581705	-0.044575	-0.805747	-8.346379	-71.174747	-159.592236
36995		0.102488	-0.581587	-0.044978	-0.805748	-8.321823	-71.163578	-159.543256
36996		0.102883	-0.581494	-0.045304	-0.805747	-8.303017	-71.154916	-159.502422
36997		0.103094	-0.581409	-0.045480	-0.805771	-8.288473	-71.145488	-159.484740
36998		0.103279	-0.581323	-0.045619	-0.805801	-8.278849	-71.135306	-159.467440
36999		0.103409	-0.581239	-0.045707	-0.805840	-8.272281	-71.124695	-159.455889
37000		0.103521	-0.581153	-0.045788	-0.805883	-8.263576	-71.113816	-159.448411
37001		0.103557	-0.581105	-0.045821	-0.805912	-8.256670	-71.107660	-159.449494
37002		0.103584	-0.581069	-0.045849	-0.805933	-8.250757	-71.103076	-159.450768
37003		0.103512	-0.581036	-0.045829	-0.805966	-8.237936	-71.098886	-159.471108
37004		0.103414	-0.580939	-0.045777	-0.806052	-8.221721	-71.085220	-159.499513
37005		0.103219	-0.580846	-0.045662	-0.806151	-8.203747	-71.071612	-159.542869
37006		0.103011	-0.580744	-0.045551	-0.806257	-8.181036	-71.057093	-159.591710
37007		0.102655	-0.580613	-0.045336	-0.806409	-8.153473	-71.037342	-159.665988
37008		0.102344	-0.580452	-0.045156	-0.806574	-8.122729	-71.014046	-159.736906
37009		0.101962	-0.580299	-0.044942	-0.806745	-8.087795	-70.991598	-159.820676
37010		0.101507	-0.580208	-0.044697	-0.806881	-8.053110	-70.977688	-159.913015
37011		0.100968	-0.580153	-0.044450	-0.807002	-8.005520	-70.969512	-160.025419
37012		0.100395	-0.580161	-0.044131	-0.807085	-7.977472	-70.968530	-160.127019
37013		0.099731	-0.580169	-0.043768	-0.807181	-7.943203	-70.967465	-160.246144
37014		0.099056	-0.580230	-0.043390	-0.807241	-7.916104	-70.973406	-160.360391
37015		0.098313	-0.580268	-0.042924	-0.807330	-7.896949	-70.974739	-160.479285
37016		0.097590	-0.580314	-0.042441	-0.807410	-7.887657	-70.976634	-160.588205
37017		0.096870	-0.580328	-0.041959	-0.807512	-7.875616	-70.974210	-160.699505
37018		0.096264	-0.580337	-0.041553	-0.807598	-7.865309	-70.971945	-160.793353
37019		0.095689	-0.580363	-0.041167	-0.807668	-7.857422	-70.972082	-160.880565
37020		0.095151	-0.580396	-0.040841	-0.807725	-7.841039	-70.974204	-160.968310
37021		0.094588	-0.580449	-0.040474	-0.807771	-7.833033	-70.978505	-161.053179
37022		0.094147	-0.580518	-0.040183	-0.807787	-7.830624	-70.985592	-161.116064
37023		0.093769	-0.580613	-0.039958	-0.807774	-7.825181	-70.997169	-161.171540
37024		0.093455	-0.580733	-0.039756	-0.807734	-7.829034	-71.012027	-161.210491
37025		0.093246	-0.580843	-0.039638	-0.807686	-7.829665	-71.026397	-161.237104
37026		0.093077	-0.580985	-0.039546	-0.807607	-7.834623	-71.045536	-161.253969
37027		0.092992	-0.581134	-0.039525	-0.807511	-7.837750	-71.066300	-161.259888
37028		0.092967	-0.581278	-0.039578	-0.807407	-7.831903	-71.087584	-161.263755
