// General information: 
//  MT Manager version: 2022.2.0 
//  XDA version: 2022.2.0 build 7381 rev 124627 built on 2023-07-19
// Device information: 
//  DeviceId: 10B414FE
//  ProductCode: MTW2-3A7G6
//  Firmware Version: 4.14.0
//  Hardware Version: 3.0.0
// Device settings: 
//  Filter Profile: human(46.1)
//  Option Flags: Orientation Smoother Disabled, Position/Velocity Smoother Disabled, Continuous Zero Rotation Update Disabled, AHS Disabled, ICC Disabled
// Coordinate system: ENU
PacketCounter	SampleTimeFine	Quat_q0	Quat_q1	Quat_q2	Quat_q3	Roll	Pitch	Yaw
35519		0.561424	0.425460	-0.463130	0.537863	-5.595411	-77.878292	92.066831
35520		0.561418	0.425438	-0.463189	0.537837	-5.615996	-77.882044	92.081697
35521		0.561390	0.425469	-0.463192	0.537839	-5.615969	-77.885429	92.084945
35522		0.561351	0.425519	-0.463163	0.537865	-5.608339	-77.887525	92.085625
35523		0.561246	0.425616	-0.463129	0.537927	-5.611522	-77.893380	92.106013
35524		0.561098	0.425722	-0.463030	0.538082	-5.623752	-77.893105	92.147585
35525		0.560967	0.425843	-0.462967	0.538179	-5.625220	-77.898190	92.172763
35526		0.560833	0.425970	-0.462917	0.538260	-5.626597	-77.905569	92.196764
35527		0.560792	0.426011	-0.462946	0.538245	-5.631472	-77.912723	92.203861
35528		0.560793	0.426007	-0.462961	0.538235	-5.635474	-77.913853	92.206104
35529		0.560782	0.426009	-0.462985	0.538223	-5.642497	-77.916582	92.211824
35530		0.560664	0.426068	-0.462956	0.538325	-5.670087	-77.918693	92.257150
35531		0.560566	0.426115	-0.462939	0.538403	-5.694716	-77.921077	92.295643
35532		0.560432	0.426187	-0.462927	0.538498	-5.726825	-77.926250	92.345872
35533		0.560315	0.426248	-0.462924	0.538573	-5.756520	-77.931438	92.390284
35534		0.560172	0.426316	-0.462911	0.538679	-5.794338	-77.936104	92.447138
35535		0.560111	0.426335	-0.462953	0.538692	-5.821279	-77.941856	92.477014
35536		0.560089	0.426291	-0.463022	0.538691	-5.861358	-77.944085	92.511810
35537		0.560074	0.426247	-0.463122	0.538655	-5.901581	-77.949721	92.542581
35538		0.560036	0.426205	-0.463226	0.538638	-5.952940	-77.955709	92.586684
35539		0.559991	0.426180	-0.463311	0.538631	-5.997860	-77.961518	92.627439
35540		0.559919	0.426182	-0.463345	0.538675	-6.036869	-77.964585	92.671326
35541		0.559848	0.426180	-0.463395	0.538707	-6.079489	-77.968902	92.716894
35542		0.559763	0.426201	-0.463433	0.538746	-6.117395	-77.974247	92.761003
35543		0.559706	0.426228	-0.463391	0.538820	-6.127551	-77.972138	92.782720
35544		0.559608	0.426306	-0.463287	0.538951	-6.127209	-77.968543	92.806039
35545		0.559582	0.426313	-0.463240	0.539012	-6.130887	-77.964120	92.817829
35546		0.559535	0.426312	-0.463240	0.539061	-6.154425	-77.963523	92.846898
35547		0.559500	0.426288	-0.463304	0.539062	-6.191180	-77.967174	92.880632
35548		0.559466	0.426244	-0.463376	0.539069	-6.237274	-77.969650	92.922395
35549		0.559460	0.426147	-0.463446	0.539093	-6.293932	-77.966047	92.971142
35550		0.559422	0.426060	-0.463479	0.539172	-6.356770	-77.959574	93.033814
35551		0.559389	0.425987	-0.463525	0.539225	-6.412229	-77.955886	93.087255
35552		0.559389	0.425887	-0.463582	0.539254	-6.464920	-77.950888	93.132642
35553		0.559340	0.425840	-0.463589	0.539337	-6.511459	-77.945715	93.183583
35554		0.559326	0.425790	-0.463609	0.539374	-6.543660	-77.942062	93.214673
35555		0.559297	0.425765	-0.463609	0.539423	-6.568945	-77.939044	93.243042
35556		0.559212	0.425742	-0.463593	0.539543	-6.619407	-77.933646	93.304911
35557		0.559191	0.425706	-0.463625	0.539566	-6.650387	-77.932768	93.334547
35558		0.559136	0.425636	-0.463662	0.539647	-6.713692	-77.928191	93.399498
35559		0.559073	0.425583	-0.463711	0.539711	-6.775542	-77.926712	93.462787
35560		0.558957	0.425565	-0.463736	0.539825	-6.844032	-77.925845	93.542057
35561		0.558925	0.425510	-0.463783	0.539861	-6.891007	-77.924188	93.587093
35562		0.558883	0.425482	-0.463777	0.539932	-6.923313	-77.919902	93.624629
35563		0.558842	0.425465	-0.463766	0.539997	-6.949826	-77.916338	93.656841
35564		0.558783	0.425458	-0.463777	0.540054	-6.983338	-77.915989	93.696019
35565		0.558753	0.425412	-0.463851	0.540057	-7.028495	-77.918340	93.736180
35566		0.558711	0.425368	-0.463908	0.540086	-7.076770	-77.918858	93.782731
35567		0.558699	0.425336	-0.463942	0.540095	-7.101956	-77.918667	93.805277
35568		0.558656	0.425337	-0.463947	0.540134	-7.122870	-77.918815	93.830698
35569		0.558624	0.425326	-0.463963	0.540163	-7.146274	-77.918807	93.856054
35570		0.558563	0.425315	-0.463975	0.540224	-7.182826	-77.918009	93.898331
35571		0.558550	0.425285	-0.464034	0.540211	-7.210726	-77.920642	93.921149
35572		0.558529	0.425260	-0.464070	0.540220	-7.237009	-77.921439	93.945627
35573		0.558564	0.425200	-0.464147	0.540165	-7.256932	-77.923264	93.952501
35574		0.558523	0.425212	-0.464199	0.540154	-7.279256	-77.929597	93.974272
35575		0.558542	0.425135	-0.464273	0.540131	-7.314490	-77.928972	93.998385
35576		0.558580	0.425062	-0.464364	0.540071	-7.341057	-77.930929	94.009815
35577		0.558571	0.425056	-0.464408	0.540047	-7.354373	-77.934782	94.019343
35578		0.558528	0.425138	-0.464348	0.540079	-7.331047	-77.937035	94.008589
35579		0.558575	0.425154	-0.464331	0.540031	-7.297780	-77.937832	93.971723
35580		0.558599	0.425196	-0.464305	0.539996	-7.263700	-77.940028	93.938191
35581		0.558659	0.425207	-0.464305	0.539927	-7.229774	-77.942031	93.897453
35582		0.558627	0.425294	-0.464215	0.539969	-7.194351	-77.941836	93.876495
35583		0.558628	0.425373	-0.464146	0.539964	-7.148600	-77.943469	93.838927
35584		0.558561	0.425473	-0.464076	0.540015	-7.127581	-77.946470	93.834542
35585		0.558542	0.425530	-0.464020	0.540038	-7.103631	-77.946583	93.819485
35586		0.558557	0.425564	-0.463985	0.540025	-7.075768	-77.946962	93.794015
35587		0.558568	0.425587	-0.463966	0.540013	-7.058051	-77.947607	93.777387
35588		0.558606	0.425581	-0.463960	0.539982	-7.040574	-77.946936	93.755931
35589		0.558652	0.425607	-0.463917	0.539952	-7.000822	-77.945804	93.715720
35590		0.558606	0.425721	-0.463780	0.540028	-6.953591	-77.943444	93.690076
35591		0.558640	0.425770	-0.463721	0.540003	-6.906292	-77.943227	93.645609
35592		0.558610	0.425876	-0.463599	0.540056	-6.857333	-77.941733	93.614537
35593		0.558587	0.425970	-0.463521	0.540073	-6.815598	-77.943724	93.584983
35594		0.558550	0.426068	-0.463444	0.540100	-6.779085	-77.946108	93.562299
35595		0.558552	0.426147	-0.463369	0.540100	-6.732685	-77.946966	93.524710
35596		0.558610	0.426148	-0.463328	0.540074	-6.697786	-77.943552	93.487269
35597		0.558625	0.426214	-0.463215	0.540102	-6.644890	-77.939223	93.445471
35598		0.558612	0.426318	-0.463091	0.540141	-6.588190	-77.937420	93.404901
35599		0.558611	0.426406	-0.463008	0.540144	-6.537385	-77.938478	93.364206
35600		0.558551	0.426537	-0.462916	0.540182	-6.495716	-77.942598	93.341066
35601		0.558532	0.426613	-0.462878	0.540173	-6.465433	-77.946917	93.317925
35602		0.558493	0.426698	-0.462803	0.540211	-6.436923	-77.947913	93.303080
35603		0.558453	0.426715	-0.462783	0.540256	-6.445794	-77.947216	93.319046
35604		0.558387	0.426758	-0.462710	0.540353	-6.449288	-77.943539	93.338533
35605		0.558345	0.426802	-0.462664	0.540400	-6.443496	-77.943071	93.343045
35606		0.558332	0.426806	-0.462597	0.540469	-6.439492	-77.936175	93.347851
35607		0.558338	0.426765	-0.462560	0.540527	-6.449982	-77.927770	93.361073
35608		0.558352	0.426694	-0.462562	0.540566	-6.475124	-77.920305	93.383377
35609		0.558342	0.426615	-0.462603	0.540604	-6.521341	-77.915645	93.425536
35610		0.558296	0.426549	-0.462615	0.540692	-6.574538	-77.909122	93.481879
35611		0.558284	0.426455	-0.462679	0.540724	-6.631520	-77.905147	93.532285
35612		0.558253	0.426322	-0.462756	0.540795	-6.716780	-77.898124	93.611332
35613		0.558189	0.426251	-0.462805	0.540876	-6.786824	-77.894450	93.682777
35614		0.558073	0.426251	-0.462756	0.541038	-6.836880	-77.887837	93.751716
35615		0.558031	0.426173	-0.462787	0.541116	-6.896439	-77.881831	93.811831
35616		0.558039	0.426042	-0.462835	0.541170	-6.957563	-77.872291	93.865246
35617		0.557984	0.425996	-0.462824	0.541272	-7.003116	-77.865298	93.917780
35618		0.557963	0.425926	-0.462836	0.541338	-7.045729	-77.858478	93.960691
35619		0.557919	0.425882	-0.462810	0.541442	-7.083447	-77.850085	94.005920
35620		0.557910	0.425776	-0.462845	0.541503	-7.139181	-77.841881	94.057562
35621		0.557880	0.425690	-0.462881	0.541570	-7.196409	-77.835596	94.113351
35622		0.557822	0.425647	-0.462897	0.541651	-7.245876	-77.831630	94.167426
35623		0.557802	0.425583	-0.462930	0.541694	-7.288508	-77.827526	94.207997
35624		0.557741	0.425571	-0.462935	0.541761	-7.323805	-77.826016	94.249711
35625		0.557729	0.425539	-0.462969	0.541770	-7.348861	-77.825770	94.272157
35626		0.557686	0.425531	-0.462964	0.541824	-7.372265	-77.823800	94.301027
35627		0.557650	0.425513	-0.462983	0.541860	-7.400663	-77.823234	94.331416
35628		0.557630	0.425526	-0.462980	0.541872	-7.404232	-77.824194	94.337752
35629		0.557599	0.425527	-0.462943	0.541935	-7.413352	-77.819907	94.354446
35630		0.557613	0.425513	-0.462931	0.541942	-7.411073	-77.817321	94.351670
35631		0.557603	0.425513	-0.462931	0.541953	-7.415869	-77.817139	94.357672
35632		0.557586	0.425526	-0.462919	0.541971	-7.416962	-77.817023	94.362220
35633		0.557601	0.425486	-0.462971	0.541941	-7.434294	-77.818293	94.371726
35634		0.557608	0.425470	-0.463018	0.541907	-7.444996	-77.821481	94.376419
35635		0.557597	0.425450	-0.463103	0.541861	-7.471159	-77.828104	94.394453
35636		0.557602	0.425462	-0.463143	0.541812	-7.469394	-77.833695	94.387990
35637		0.557594	0.425453	-0.463163	0.541810	-7.479963	-77.834684	94.397243
35638		0.557570	0.425469	-0.463178	0.541810	-7.486991	-77.837759	94.405799
35639		0.557556	0.425463	-0.463186	0.541822	-7.497546	-77.837781	94.416955
35640		0.557499	0.425480	-0.463175	0.541877	-7.516108	-77.837640	94.443564
35641		0.557519	0.425442	-0.463182	0.541880	-7.523603	-77.834444	94.447526
35642		0.557540	0.425384	-0.463219	0.541872	-7.544090	-77.832121	94.460847
35643		0.557584	0.425311	-0.463309	0.541807	-7.567589	-77.833916	94.468716
35644		0.557604	0.425242	-0.463396	0.541767	-7.601093	-77.835560	94.489698
35645		0.557611	0.425211	-0.463492	0.541702	-7.624688	-77.842231	94.501874
35646		0.557557	0.425215	-0.463518	0.541732	-7.653252	-77.844751	94.534034
35647		0.557506	0.425232	-0.463519	0.541769	-7.670592	-77.846058	94.557348
35648		0.557470	0.425266	-0.463508	0.541790	-7.672051	-77.848160	94.564731
35649		0.557449	0.425266	-0.463535	0.541788	-7.686077	-77.850752	94.578216
35650		0.557416	0.425279	-0.463539	0.541810	-7.697205	-77.852100	94.593090
35651		0.557439	0.425206	-0.463591	0.541797	-7.725000	-77.849769	94.611626
35652		0.557440	0.425167	-0.463605	0.541815	-7.743706	-77.846810	94.628213
35653		0.557485	0.425109	-0.463672	0.541757	-7.756394	-77.847931	94.627798
35654		0.557454	0.425079	-0.463715	0.541777	-7.791270	-77.848557	94.661433
35655		0.557469	0.425057	-0.463762	0.541737	-7.799942	-77.851273	94.662977
35656		0.557497	0.425012	-0.463802	0.541710	-7.811902	-77.850795	94.666800
35657		0.557486	0.424995	-0.463813	0.541725	-7.826174	-77.849845	94.680999
35658		0.557466	0.425012	-0.463776	0.541763	-7.823015	-77.847676	94.684258
35659		0.557464	0.425022	-0.463734	0.541794	-7.813500	-77.844254	94.679636
35660		0.557491	0.425006	-0.463696	0.541812	-7.801964	-77.838807	94.668845
35661		0.557513	0.425001	-0.463662	0.541822	-7.788408	-77.834999	94.656196
35662		0.557540	0.425011	-0.463597	0.541841	-7.761485	-77.829762	94.633198
35663		0.557574	0.424999	-0.463568	0.541841	-7.745931	-77.825757	94.616561
35664		0.557582	0.425040	-0.463485	0.541873	-7.712496	-77.821674	94.591694
35665		0.557600	0.425070	-0.463411	0.541892	-7.679401	-77.817699	94.564629
35666		0.557611	0.425100	-0.463315	0.541940	-7.647378	-77.811085	94.542072
35667		0.557638	0.425117	-0.463249	0.541956	-7.617367	-77.806401	94.516104
35668		0.557672	0.425158	-0.463180	0.541948	-7.573149	-77.804205	94.475876
35669		0.557703	0.425156	-0.463148	0.541943	-7.554004	-77.801144	94.456336
35670		0.557736	0.425146	-0.463096	0.541963	-7.534905	-77.794936	94.438896
35671		0.557791	0.425154	-0.463030	0.541956	-7.495226	-77.789642	94.399887
35672		0.557824	0.425178	-0.462957	0.541966	-7.458564	-77.785088	94.367447
35673		0.557843	0.425207	-0.462872	0.541996	-7.424322	-77.779662	94.340469
35674		0.557918	0.425189	-0.462846	0.541955	-7.391905	-77.775911	94.301779
35675		0.557938	0.425237	-0.462761	0.541970	-7.349652	-77.772642	94.266857
35676		0.557934	0.425290	-0.462667	0.542013	-7.315212	-77.768629	94.243615
35677		0.557980	0.425314	-0.462612	0.541994	-7.274698	-77.766127	94.203918
35678		0.557989	0.425306	-0.462578	0.542019	-7.268597	-77.761796	94.200221
35679		0.558026	0.425302	-0.462564	0.541996	-7.250273	-77.760383	94.178974
35680		0.558073	0.425246	-0.462592	0.541968	-7.256427	-77.757643	94.175949
35681		0.558089	0.425203	-0.462608	0.541972	-7.269678	-77.754649	94.185072
35682		0.558201	0.425124	-0.462633	0.541897	-7.253457	-77.749979	94.152124
35683		0.558208	0.425139	-0.462605	0.541902	-7.239834	-77.748705	94.140863
35684		0.558239	0.425128	-0.462602	0.541881	-7.229126	-77.747617	94.126626
35685		0.558277	0.425141	-0.462577	0.541853	-7.201423	-77.746942	94.097288
35686		0.558242	0.425200	-0.462478	0.541927	-7.178594	-77.742698	94.089895
35687		0.558258	0.425260	-0.462410	0.541921	-7.134800	-77.742477	94.052276
35688		0.558255	0.425313	-0.462350	0.541934	-7.104987	-77.742063	94.029908
35689		0.558226	0.425368	-0.462315	0.541951	-7.089980	-77.744248	94.022697
35690		0.558163	0.425449	-0.462267	0.541993	-7.078312	-77.747463	94.024552
35691		0.558123	0.425486	-0.462260	0.542012	-7.080395	-77.750284	94.032603
35692		0.558061	0.425561	-0.462219	0.542051	-7.071798	-77.753566	94.036547
35693		0.558053	0.425594	-0.462184	0.542064	-7.056502	-77.753431	94.026297
35694		0.557978	0.425668	-0.462136	0.542123	-7.053626	-77.755753	94.038221
35695		0.557933	0.425724	-0.462106	0.542151	-7.046337	-77.758346	94.040119
35696		0.557884	0.425818	-0.462014	0.542207	-7.016316	-77.758455	94.026835
35697		0.557807	0.425918	-0.461938	0.542271	-6.998671	-77.760749	94.027497
35698		0.557716	0.426033	-0.461836	0.542361	-6.978015	-77.761810	94.029788
35699		0.557688	0.426085	-0.461771	0.542405	-6.959774	-77.760433	94.022430
35700		0.557666	0.426134	-0.461732	0.542422	-6.943481	-77.761463	94.013412
35701		0.557634	0.426182	-0.461700	0.542445	-6.933541	-77.763139	94.011285
35702		0.557646	0.426181	-0.461669	0.542459	-6.923576	-77.759928	94.003201
35703		0.557595	0.426241	-0.461627	0.542500	-6.916356	-77.761547	94.007093
35704		0.557507	0.426323	-0.461574	0.542572	-6.915272	-77.764014	94.023058
35705		0.557439	0.426389	-0.461585	0.542581	-6.920969	-77.771727	94.036334
35706		0.557371	0.426467	-0.461552	0.542617	-6.914584	-77.776168	94.042426
35707		0.557295	0.426587	-0.461489	0.542655	-6.890186	-77.782026	94.035184
35708		0.557235	0.426698	-0.461450	0.542662	-6.864891	-77.789553	94.022396
35709		0.557187	0.426767	-0.461435	0.542670	-6.855861	-77.795213	94.021403
35710		0.557069	0.426928	-0.461377	0.542714	-6.833803	-77.805636	94.021349
35711		0.556992	0.427050	-0.461332	0.542735	-6.811309	-77.813617	94.014171
35712		0.556880	0.427192	-0.461276	0.542786	-6.795384	-77.822242	94.019062
35713		0.556816	0.427299	-0.461274	0.542768	-6.778414	-77.833332	94.011040
35714		0.556722	0.427402	-0.461291	0.542769	-6.781161	-77.845556	94.024270
35715		0.556690	0.427466	-0.461335	0.542714	-6.774494	-77.856948	94.017428
35716		0.556534	0.427615	-0.461321	0.542769	-6.782792	-77.870197	94.047395
35717		0.556461	0.427697	-0.461378	0.542730	-6.790012	-77.884533	94.057973
35718		0.556352	0.427793	-0.461416	0.542734	-6.806083	-77.897908	94.083955
35719		0.556279	0.427856	-0.461473	0.542711	-6.821579	-77.910086	94.102746
35720		0.556187	0.427950	-0.461483	0.542723	-6.826451	-77.920575	94.118395
35721		0.556152	0.428006	-0.461518	0.542685	-6.823645	-77.930049	94.116660
35722		0.556092	0.428075	-0.461523	0.542687	-6.822968	-77.937616	94.123278
35723		0.556073	0.428113	-0.461564	0.542643	-6.821829	-77.945940	94.120531
35724		0.555990	0.428224	-0.461554	0.542649	-6.811580	-77.956275	94.122466
35725		0.555928	0.428303	-0.461565	0.542640	-6.807892	-77.965674	94.125759
35726		0.555899	0.428353	-0.461557	0.542638	-6.799172	-77.970003	94.121937
35727		0.555891	0.428361	-0.461572	0.542626	-6.800923	-77.972421	94.123096
35728		0.555875	0.428375	-0.461575	0.542628	-6.802997	-77.974159	94.126838
35729		0.555865	0.428395	-0.461587	0.542613	-6.800986	-77.977527	94.124922
35730		0.555845	0.428388	-0.461605	0.542624	-6.816753	-77.978315	94.141123
35731		0.555859	0.428372	-0.461607	0.542620	-6.816845	-77.977000	94.139100
35732		0.555873	0.428377	-0.461604	0.542604	-6.807370	-77.977372	94.128362
35733		0.555895	0.428373	-0.461582	0.542604	-6.795235	-77.974917	94.115951
35734		0.555939	0.428366	-0.461527	0.542611	-6.768904	-77.968882	94.090296
35735		0.555965	0.428367	-0.461478	0.542626	-6.749066	-77.964079	94.072640
35736		0.555970	0.428403	-0.461404	0.542655	-6.719931	-77.960410	94.051229
35737		0.556004	0.428413	-0.461319	0.542685	-6.686649	-77.953038	94.023201
35738		0.556011	0.428465	-0.461193	0.542744	-6.642730	-77.945635	93.992496
35739		0.556057	0.428486	-0.461114	0.542747	-6.599188	-77.940204	93.952283
35740		0.556078	0.428522	-0.460981	0.542809	-6.553897	-77.930614	93.919000
35741		0.556165	0.428508	-0.460893	0.542806	-6.505448	-77.920774	93.869674
35742		0.556242	0.428519	-0.460821	0.542780	-6.453047	-77.915321	93.816077
35743		0.556327	0.428491	-0.460774	0.542755	-6.417392	-77.908290	93.775170
35744		0.556386	0.428472	-0.460727	0.542749	-6.389920	-77.901848	93.745604
35745		0.556484	0.428456	-0.460685	0.542698	-6.344011	-77.896745	93.692518
35746		0.556529	0.428514	-0.460575	0.542698	-6.280207	-77.892256	93.635784
35747		0.556627	0.428537	-0.460467	0.542672	-6.207309	-77.884530	93.563307
35748		0.556679	0.428590	-0.460324	0.542698	-6.138365	-77.875915	93.504123
35749		0.556781	0.428638	-0.460213	0.542649	-6.052245	-77.870765	93.418491
35750		0.556848	0.428702	-0.460073	0.542649	-5.971854	-77.863781	93.345982
35751		0.556977	0.428742	-0.459968	0.542574	-5.876676	-77.858635	93.247304
35752		0.557068	0.428809	-0.459828	0.542546	-5.783307	-77.852320	93.159034
35753		0.557173	0.428840	-0.459765	0.542467	-5.709218	-77.850160	93.079758
35754		0.557261	0.428884	-0.459714	0.542386	-5.640039	-77.850552	93.006301
35755		0.557335	0.428936	-0.459666	0.542308	-5.573685	-77.852085	92.936974
35756		0.557395	0.428983	-0.459643	0.542230	-5.520519	-77.855356	92.879895
35757		0.557483	0.429001	-0.459625	0.542140	-5.466576	-77.856441	92.817770
35758		0.557524	0.429075	-0.459545	0.542107	-5.402317	-77.856564	92.758109
35759		0.557592	0.429134	-0.459522	0.542010	-5.339454	-77.861343	92.690505
35760		0.557611	0.429231	-0.459435	0.541988	-5.274845	-77.862868	92.634176
35761		0.557670	0.429300	-0.459368	0.541929	-5.205518	-77.864024	92.565802
35762		0.557744	0.429355	-0.459312	0.541857	-5.137253	-77.864802	92.495594
35763		0.557802	0.429407	-0.459262	0.541797	-5.078007	-77.865956	92.435384
35764		0.557836	0.429487	-0.459196	0.541755	-5.016298	-77.868057	92.377713
35765		0.557873	0.429506	-0.459219	0.541683	-4.992785	-77.872833	92.347706
35766		0.557873	0.429574	-0.459217	0.541631	-4.960892	-77.880055	92.316813
35767		0.557930	0.429552	-0.459251	0.541560	-4.946914	-77.881824	92.292290
35768		0.557999	0.429500	-0.459330	0.541463	-4.947178	-77.885103	92.275448
35769		0.558070	0.429466	-0.459413	0.541347	-4.938762	-77.890708	92.249496
35770		0.558122	0.429427	-0.459484	0.541264	-4.939854	-77.894483	92.236525
35771		0.558187	0.429375	-0.459536	0.541194	-4.938575	-77.894894	92.221413
35772		0.558195	0.429383	-0.459521	0.541192	-4.929071	-77.894292	92.212667
35773		0.558232	0.429399	-0.459520	0.541142	-4.903350	-77.896204	92.182925
35774		0.558213	0.429429	-0.459484	0.541169	-4.894631	-77.895468	92.180698
35775		0.558234	0.429425	-0.459468	0.541163	-4.883587	-77.893622	92.168795
35776		0.558271	0.429398	-0.459483	0.541135	-4.880369	-77.892507	92.159375
35777		0.558343	0.429316	-0.459572	0.541049	-4.893393	-77.893698	92.153430
35778		0.558376	0.429273	-0.459611	0.541016	-4.902450	-77.893352	92.153974
35779		0.558429	0.429225	-0.459635	0.540979	-4.901106	-77.891132	92.143263
35780		0.558485	0.429128	-0.459682	0.540959	-4.924622	-77.886015	92.154103
35781		0.558555	0.429054	-0.459733	0.540902	-4.930610	-77.883857	92.145510
35782		0.558577	0.428994	-0.459755	0.540907	-4.950162	-77.879950	92.159411
35783		0.558644	0.428913	-0.459809	0.540857	-4.961323	-77.877332	92.155996
35784		0.558731	0.428814	-0.459854	0.540807	-4.970073	-77.872029	92.148547
35785		0.558803	0.428736	-0.459875	0.540778	-4.973424	-77.866308	92.140400
35786		0.558837	0.428675	-0.459867	0.540798	-4.983735	-77.859100	92.146805
35787		0.558914	0.428573	-0.459873	0.540792	-4.993253	-77.849388	92.145302
35788		0.558944	0.428527	-0.459837	0.540830	-4.995823	-77.840690	92.147767
35789		0.559029	0.428474	-0.459827	0.540792	-4.977023	-77.834666	92.119315
35790		0.559060	0.428469	-0.459764	0.540817	-4.956165	-77.827769	92.101423
35791		0.559125	0.428419	-0.459736	0.540814	-4.944270	-77.819837	92.084410
35792		0.559077	0.428454	-0.459616	0.540938	-4.936706	-77.810545	92.095609
35793		0.559080	0.428422	-0.459564	0.541004	-4.943391	-77.801635	92.107077
35794		0.559130	0.428360	-0.459533	0.541027	-4.943329	-77.792111	92.103614
35795		0.559157	0.428296	-0.459496	0.541082	-4.954972	-77.781367	92.115370
35796		0.559193	0.428237	-0.459430	0.541148	-4.956529	-77.768189	92.118992
35797		0.559251	0.428168	-0.459365	0.541197	-4.951286	-77.754350	92.112954
35798		0.559319	0.428100	-0.459295	0.541240	-4.940747	-77.740155	92.100963
35799		0.559358	0.428068	-0.459189	0.541315	-4.923406	-77.725754	92.089962
35800		0.559349	0.428059	-0.459093	0.541412	-4.919936	-77.714541	92.097569
35801		0.559366	0.428053	-0.459024	0.541459	-4.905706	-77.706744	92.088734
35802		0.559283	0.428109	-0.458930	0.541580	-4.909044	-77.702236	92.112440
35803		0.559194	0.428171	-0.458862	0.541680	-4.915161	-77.700970	92.136889
35804		0.559092	0.428230	-0.458734	0.541847	-4.921522	-77.692949	92.169590
35805		0.559035	0.428251	-0.458642	0.541967	-4.928203	-77.685100	92.192951
35806		0.559046	0.428201	-0.458598	0.542033	-4.940549	-77.674995	92.208111
35807		0.559088	0.428154	-0.458557	0.542061	-4.936141	-77.665860	92.202515
35808		0.559076	0.428143	-0.458472	0.542154	-4.936244	-77.655600	92.212912
35809		0.559108	0.428076	-0.458445	0.542196	-4.947598	-77.645796	92.222471
35810		0.559137	0.427998	-0.458435	0.542237	-4.967939	-77.636404	92.239650
35811		0.559140	0.427925	-0.458438	0.542289	-4.999778	-77.628756	92.269915
35812		0.559143	0.427836	-0.458478	0.542323	-5.043726	-77.623235	92.308178
35813		0.559146	0.427782	-0.458494	0.542348	-5.068214	-77.619108	92.329925
35814		0.559124	0.427760	-0.458442	0.542432	-5.082136	-77.610900	92.351617
35815		0.559178	0.427730	-0.458367	0.542464	-5.060441	-77.600299	92.331204
35816		0.559224	0.427713	-0.458296	0.542489	-5.036761	-77.591396	92.309391
35817		0.559276	0.427730	-0.458209	0.542496	-4.993664	-77.584501	92.269630
35818		0.559293	0.427741	-0.458101	0.542562	-4.967420	-77.574405	92.253101
35819		0.559322	0.427745	-0.458024	0.542593	-4.942041	-77.567053	92.232445
35820		0.559396	0.427725	-0.458001	0.542551	-4.912379	-77.563183	92.196328
35821		0.559412	0.427742	-0.457963	0.542554	-4.892616	-77.561040	92.178957
35822		0.559367	0.427791	-0.457875	0.542636	-4.881051	-77.556702	92.182605
35823		0.559372	0.427754	-0.457873	0.542662	-4.895628	-77.552544	92.196366
35824		0.559397	0.427747	-0.457821	0.542685	-4.879889	-77.546581	92.183102
35825		0.559433	0.427745	-0.457726	0.542730	-4.851859	-77.536610	92.160965
35826		0.559434	0.427790	-0.457613	0.542789	-4.817460	-77.529564	92.139001
35827		0.559480	0.427788	-0.457588	0.542763	-4.793116	-77.527210	92.111762
35828		0.559474	0.427838	-0.457507	0.542798	-4.763435	-77.524096	92.092015
35829		0.559509	0.427860	-0.457461	0.542784	-4.731244	-77.521916	92.060844
35830		0.559528	0.427871	-0.457418	0.542793	-4.712172	-77.518718	92.044385
35831		0.559539	0.427904	-0.457327	0.542832	-4.680938	-77.512701	92.021868
35832		0.559475	0.427979	-0.457216	0.542932	-4.663823	-77.508723	92.024924
35833		0.559448	0.428005	-0.457176	0.542974	-4.660631	-77.507038	92.029506
35834		0.559444	0.428002	-0.457124	0.543023	-4.657040	-77.501233	92.031785
35835		0.559448	0.428004	-0.457050	0.543080	-4.645239	-77.493630	92.027410
35836		0.559451	0.427988	-0.456980	0.543148	-4.642442	-77.484552	92.031436
35837		0.559466	0.427967	-0.456939	0.543183	-4.639503	-77.478195	92.030773
35838		0.559457	0.427939	-0.456951	0.543205	-4.658076	-77.476248	92.048805
35839		0.559451	0.427960	-0.456918	0.543222	-4.647213	-77.475035	92.042416
35840		0.559370	0.428007	-0.456869	0.543310	-4.658566	-77.474276	92.069095
35841		0.559329	0.428026	-0.456866	0.543340	-4.669146	-77.475711	92.085054
35842		0.559260	0.428056	-0.456843	0.543406	-4.685556	-77.475996	92.112296
35843		0.559219	0.428075	-0.456834	0.543442	-4.695653	-77.476714	92.128393
35844		0.559183	0.428064	-0.456846	0.543477	-4.718838	-77.476505	92.154314
35845		0.559141	0.428066	-0.456855	0.543511	-4.738740	-77.477261	92.178298
35846		0.559071	0.428101	-0.456846	0.543563	-4.755258	-77.479605	92.204337
35847		0.559041	0.428097	-0.456865	0.543581	-4.773708	-77.480848	92.224257
35848		0.559000	0.428102	-0.456881	0.543606	-4.792731	-77.482669	92.246412
35849		0.558963	0.428107	-0.456949	0.543583	-4.816466	-77.490087	92.267357
35850		0.558968	0.428097	-0.457001	0.543542	-4.824787	-77.494505	92.269501
35851		0.558951	0.428123	-0.457032	0.543513	-4.825226	-77.500440	92.268926
35852		0.558892	0.428171	-0.457056	0.543515	-4.834647	-77.507734	92.283251
35853		0.558881	0.428177	-0.457104	0.543483	-4.843669	-77.513238	92.288654
35854		0.558882	0.428200	-0.457146	0.543427	-4.837675	-77.520267	92.278307
35855		0.558831	0.428237	-0.457166	0.543433	-4.847852	-77.525938	92.292771
35856		0.558772	0.428284	-0.457168	0.543456	-4.855342	-77.530717	92.307561
35857		0.558712	0.428335	-0.457186	0.543461	-4.863010	-77.537783	92.320892
35858		0.558633	0.428390	-0.457231	0.543462	-4.881903	-77.547795	92.345047
35859		0.558590	0.428415	-0.457277	0.543448	-4.896726	-77.554919	92.360312
35860		0.558541	0.428432	-0.457321	0.543447	-4.917941	-77.561028	92.382718
35861		0.558523	0.428425	-0.457387	0.543416	-4.938152	-77.567028	92.398081
35862		0.558521	0.428394	-0.457463	0.543379	-4.962431	-77.571653	92.414174
35863		0.558505	0.428377	-0.457531	0.543352	-4.986464	-77.576718	92.432673
35864		0.558450	0.428404	-0.457560	0.543363	-5.004503	-77.582236	92.454390
35865		0.558409	0.428401	-0.457619	0.543357	-5.032579	-77.587737	92.480924
35866		0.558413	0.428321	-0.457728	0.543324	-5.080484	-77.590506	92.515794
35867		0.558402	0.428266	-0.457823	0.543299	-5.122569	-77.594436	92.548435
35868		0.558342	0.428234	-0.457879	0.543338	-5.172188	-77.596277	92.598657
35869		0.558323	0.428189	-0.457931	0.543350	-5.208107	-77.596602	92.630838
35870		0.558195	0.428220	-0.457940	0.543449	-5.256507	-77.599717	92.693679
35871		0.558129	0.428216	-0.458007	0.543464	-5.298672	-77.605645	92.736375
35872		0.558104	0.428160	-0.458129	0.543430	-5.351055	-77.612135	92.777989
35873		0.558035	0.428166	-0.458194	0.543441	-5.389548	-77.618984	92.817699
35874		0.557931	0.428215	-0.458202	0.543503	-5.418871	-77.624132	92.858926
35875		0.557866	0.428207	-0.458245	0.543540	-5.459030	-77.627180	92.902093
35876		0.557827	0.428189	-0.458274	0.543569	-5.489423	-77.627855	92.933630
35877		0.557813	0.428124	-0.458342	0.543578	-5.534072	-77.627684	92.971941
35878		0.557792	0.428047	-0.458453	0.543566	-5.592597	-77.630631	93.020208
35879		0.557757	0.427963	-0.458570	0.543570	-5.662086	-77.633272	93.080346
35880		0.557719	0.427885	-0.458684	0.543575	-5.730400	-77.636261	93.140092
35881		0.557659	0.427818	-0.458810	0.543583	-5.805731	-77.641427	93.208208
35882		0.557577	0.427804	-0.458853	0.543641	-5.856145	-77.643602	93.263416
35883		0.557568	0.427781	-0.458901	0.543628	-5.877688	-77.645994	93.280609
35884		0.557479	0.427828	-0.458894	0.543688	-5.898388	-77.649595	93.313053
35885		0.557457	0.427872	-0.458885	0.543684	-5.888450	-77.653141	93.307208
35886		0.557376	0.427958	-0.458847	0.543730	-5.883650	-77.657969	93.316905
35887		0.557347	0.427988	-0.458844	0.543739	-5.883812	-77.660549	93.321167
35888		0.557258	0.428055	-0.458786	0.543827	-5.889068	-77.660948	93.343804
35889		0.557229	0.428067	-0.458787	0.543846	-5.898033	-77.662102	93.356190
35890		0.557265	0.428019	-0.458809	0.543829	-5.904875	-77.659423	93.355987
35891		0.557263	0.428004	-0.458809	0.543842	-5.912341	-77.657788	93.363436
35892		0.557225	0.428016	-0.458780	0.543897	-5.921330	-77.655586	93.380137
35893		0.557221	0.428028	-0.458761	0.543907	-5.915126	-77.654897	93.376522
35894		0.557158	0.428080	-0.458744	0.543945	-5.920596	-77.658199	93.391727
35895		0.557162	0.428124	-0.458727	0.543921	-5.896647	-77.661327	93.369808
35896		0.557182	0.428143	-0.458699	0.543909	-5.875147	-77.660703	93.349114
35897		0.557187	0.428160	-0.458694	0.543894	-5.864292	-77.662170	93.338302
35898		0.557070	0.428270	-0.458617	0.543993	-5.861269	-77.664984	93.358653
35899		0.557023	0.428327	-0.458592	0.544016	-5.854886	-77.668232	93.360983
35900		0.556962	0.428372	-0.458572	0.544062	-5.862019	-77.670352	93.378045
35901		0.556904	0.428432	-0.458506	0.544129	-5.854293	-77.669533	93.384745
35902		0.556871	0.428491	-0.458388	0.544215	-5.827766	-77.663309	93.375305
35903		0.556844	0.428536	-0.458355	0.544236	-5.816899	-77.664459	93.371711
35904		0.556822	0.428579	-0.458316	0.544257	-5.802924	-77.665033	93.364930
35905		0.556779	0.428661	-0.458284	0.544264	-5.782704	-77.670183	93.354108
35906		0.556771	0.428688	-0.458285	0.544249	-5.774383	-77.673286	93.346959
35907		0.556735	0.428748	-0.458256	0.544263	-5.761652	-77.676548	93.342255
35908		0.556648	0.428811	-0.458244	0.544312	-5.773339	-77.681332	93.366112
35909		0.556557	0.428881	-0.458248	0.544347	-5.786718	-77.688511	93.390484
35910		0.556448	0.428983	-0.458193	0.544426	-5.786681	-77.692811	93.410398
35911		0.556388	0.429030	-0.458175	0.544464	-5.791803	-77.695545	93.424935
35912		0.556324	0.429102	-0.458117	0.544522	-5.782797	-77.696854	93.430441
35913		0.556289	0.429134	-0.458096	0.544550	-5.782647	-77.697744	93.436956
35914		0.556247	0.429155	-0.458082	0.544589	-5.791604	-77.698142	93.452637
35915		0.556224	0.429180	-0.458077	0.544596	-5.790514	-77.700248	93.454978
35916		0.556219	0.429182	-0.458102	0.544578	-5.795705	-77.703065	93.458158
35917		0.556156	0.429221	-0.458075	0.544634	-5.804800	-77.703886	93.477912
35918		0.556024	0.429345	-0.458000	0.544734	-5.802801	-77.708355	93.500707
35919		0.555972	0.429407	-0.457983	0.544754	-5.798405	-77.712762	93.505108
35920		0.555920	0.429465	-0.457949	0.544790	-5.793204	-77.715106	93.510259
35921		0.555884	0.429499	-0.457952	0.544797	-5.795358	-77.718842	93.516605
35922		0.555812	0.429562	-0.457921	0.544846	-5.797550	-77.721913	93.531241
35923		0.555810	0.429549	-0.457934	0.544848	-5.806198	-77.721688	93.538655
35924		0.555749	0.429599	-0.457929	0.544875	-5.812537	-77.726106	93.553230
35925		0.555713	0.429616	-0.457943	0.544886	-5.824102	-77.729125	93.567689
35926		0.555664	0.429654	-0.457894	0.544949	-5.824461	-77.727581	93.579478
35927		0.555651	0.429681	-0.457879	0.544952	-5.816421	-77.728996	93.574810
35928		0.555616	0.429777	-0.457818	0.544963	-5.782201	-77.732867	93.552304
35929		0.555593	0.429863	-0.457766	0.544963	-5.748050	-77.736632	93.527431
35930		0.555555	0.429960	-0.457676	0.545000	-5.710636	-77.737666	93.505105
35931		0.555565	0.430000	-0.457651	0.544979	-5.684661	-77.739603	93.481122
35932		0.555516	0.430045	-0.457648	0.544998	-5.688089	-77.743668	93.491223
35933		0.555521	0.430066	-0.457679	0.544949	-5.680535	-77.749397	93.480021
35934		0.555488	0.430083	-0.457650	0.544993	-5.684811	-77.747883	93.491316
35935		0.555489	0.430078	-0.457678	0.544973	-5.690067	-77.750279	93.493485
35936		0.555503	0.430075	-0.457675	0.544964	-5.684692	-77.749729	93.486824
35937		0.555483	0.430109	-0.457685	0.544948	-5.680211	-77.754449	93.483929
35938		0.555454	0.430155	-0.457662	0.544962	-5.670541	-77.756748	93.480715
35939		0.555469	0.430157	-0.457652	0.544953	-5.661462	-77.756083	93.470959
35940		0.555446	0.430194	-0.457628	0.544967	-5.652127	-77.757500	93.467294
35941		0.555488	0.430193	-0.457667	0.544892	-5.637656	-77.761888	93.443810
35942		0.555505	0.430175	-0.457655	0.544900	-5.636275	-77.758769	93.441535
35943		0.555515	0.430213	-0.457612	0.544896	-5.608571	-77.758560	93.417690
35944		0.555523	0.430231	-0.457589	0.544892	-5.593516	-77.758313	93.404263
35945		0.555484	0.430278	-0.457515	0.544957	-5.581445	-77.755375	93.405214
35946		0.555377	0.430378	-0.457395	0.545088	-5.571942	-77.752706	93.422149
35947		0.555356	0.430375	-0.457391	0.545115	-5.582936	-77.751724	93.435850
35948		0.555314	0.430409	-0.457356	0.545160	-5.583050	-77.751485	93.445014
35949		0.555328	0.430391	-0.457328	0.545184	-5.580623	-77.746541	93.443717
35950		0.555304	0.430376	-0.457309	0.545236	-5.596399	-77.742726	93.464077
35951		0.555307	0.430342	-0.457332	0.545241	-5.613143	-77.741326	93.477615
35952		0.555308	0.430316	-0.457342	0.545252	-5.626025	-77.739540	93.489067
35953		0.555260	0.430354	-0.457316	0.545292	-5.628080	-77.740626	93.499814
35954		0.555194	0.430378	-0.457262	0.545386	-5.641939	-77.736868	93.527409
35955		0.555189	0.430336	-0.457246	0.545438	-5.661176	-77.730449	93.548478
35956		0.555223	0.430289	-0.457237	0.545447	-5.664252	-77.724716	93.547821
35957		0.555229	0.430228	-0.457285	0.545449	-5.695228	-77.723076	93.572364
35958		0.555243	0.430138	-0.457330	0.545468	-5.734602	-77.717906	93.604275
35959		0.555212	0.430111	-0.457305	0.545542	-5.757987	-77.711893	93.633486
35960		0.555123	0.430166	-0.457211	0.545668	-5.763425	-77.707202	93.659912
35961		0.555065	0.430223	-0.457121	0.545758	-5.753732	-77.703502	93.667187
35962		0.554998	0.430275	-0.457038	0.545854	-5.751363	-77.699895	93.682072
35963		0.554954	0.430302	-0.457008	0.545903	-5.756627	-77.699313	93.695974
35964		0.554938	0.430326	-0.456989	0.545917	-5.751200	-77.699778	93.694679
35965		0.554930	0.430314	-0.456984	0.545938	-5.759505	-77.697859	93.704328
35966		0.554853	0.430339	-0.456937	0.546036	-5.778848	-77.694895	93.737812
35967		0.554875	0.430274	-0.456956	0.546049	-5.799740	-77.689952	93.753383
35968		0.554844	0.430231	-0.456968	0.546105	-5.835243	-77.685999	93.790674
35969		0.554814	0.430225	-0.456974	0.546135	-5.853181	-77.685678	93.811406
35970		0.554766	0.430231	-0.456946	0.546201	-5.869233	-77.682940	93.836024
35971		0.554719	0.430248	-0.456895	0.546279	-5.877291	-77.679010	93.855216
35972		0.554656	0.430276	-0.456819	0.546385	-5.884540	-77.673446	93.878188
35973		0.554665	0.430239	-0.456852	0.546376	-5.900990	-77.672985	93.889515
35974		0.554733	0.430128	-0.456986	0.546284	-5.936421	-77.675236	93.901592
35975		0.554772	0.430060	-0.457076	0.546223	-5.960088	-77.677458	93.910421
35976		0.554843	0.429942	-0.457171	0.546163	-5.991117	-77.675017	93.921632
35977		0.554866	0.429835	-0.457232	0.546173	-6.036018	-77.669788	93.956057
35978		0.554839	0.429783	-0.457200	0.546267	-6.066649	-77.660415	93.992451
35979		0.554843	0.429728	-0.457198	0.546310	-6.089124	-77.653970	94.014158
35980		0.554809	0.429731	-0.457158	0.546375	-6.098538	-77.649809	94.031725
35981		0.554833	0.429713	-0.457108	0.546407	-6.087868	-77.642755	94.023380
35982		0.554887	0.429690	-0.457076	0.546396	-6.067595	-77.637437	93.999876
35983		0.554917	0.429651	-0.457035	0.546431	-6.064919	-77.629194	93.997533
35984		0.554925	0.429657	-0.456977	0.546466	-6.050171	-77.623961	93.988039
35985		0.554940	0.429657	-0.456949	0.546474	-6.039504	-77.621164	93.978585
35986		0.554917	0.429660	-0.456911	0.546527	-6.043605	-77.617305	93.989477
35987		0.554918	0.429649	-0.456884	0.546557	-6.043766	-77.613266	93.992168
35988		0.554932	0.429622	-0.456850	0.546593	-6.044638	-77.606732	93.994748
35989		0.554961	0.429586	-0.456839	0.546600	-6.044865	-77.602050	93.992204
35990		0.554976	0.429600	-0.456782	0.546622	-6.023801	-77.597782	93.975649
35991		0.555040	0.429569	-0.456754	0.546605	-6.003070	-77.592031	93.950013
35992		0.555081	0.429543	-0.456721	0.546611	-5.990514	-77.586133	93.935894
35993		0.555142	0.429509	-0.456732	0.546567	-5.978262	-77.584165	93.915010
35994		0.555236	0.429424	-0.456807	0.546476	-5.980992	-77.583488	93.897782
35995		0.555278	0.429401	-0.456820	0.546439	-5.972743	-77.582894	93.882961
35996		0.555293	0.429420	-0.456787	0.546437	-5.953154	-77.581714	93.865405
35997		0.555323	0.429419	-0.456755	0.546435	-5.934888	-77.578483	93.846979
35998		0.555325	0.429449	-0.456675	0.546476	-5.910216	-77.573507	93.830928
35999		0.555366	0.429484	-0.456623	0.546449	-5.867652	-77.572465	93.789501
36000		0.555405	0.429520	-0.456563	0.546432	-5.825274	-77.570586	93.749391
36001		0.555468	0.429536	-0.456529	0.546385	-5.784135	-77.569344	93.704776
36002		0.555486	0.429542	-0.456512	0.546374	-5.770304	-77.568591	93.690608
36003		0.555534	0.429519	-0.456549	0.546313	-5.762977	-77.570379	93.673539
36004		0.555499	0.429536	-0.456522	0.546359	-5.768591	-77.568978	93.686346
36005		0.555536	0.429549	-0.456496	0.546332	-5.741473	-77.568132	93.657827
36006		0.555513	0.429603	-0.456454	0.546348	-5.723089	-77.569506	93.647151
36007		0.555510	0.429654	-0.456455	0.546310	-5.702388	-77.575216	93.627370
36008		0.555458	0.429719	-0.456394	0.546363	-5.690119	-77.575599	93.628433
36009		0.555512	0.429708	-0.456413	0.546300	-5.671622	-77.576925	93.601442
36010		0.555490	0.429732	-0.456409	0.546307	-5.670960	-77.578930	93.604124
36011		0.555574	0.429653	-0.456475	0.546229	-5.675382	-77.577939	93.590841
36012		0.555573	0.429645	-0.456485	0.546228	-5.680240	-77.578030	93.594628
36013		0.555608	0.429630	-0.456529	0.546166	-5.676082	-77.581445	93.581495
36014		0.555626	0.429639	-0.456505	0.546162	-5.660626	-77.580028	93.566702
36015		0.555638	0.429668	-0.456476	0.546151	-5.638211	-77.580299	93.546269
36016		0.555622	0.429716	-0.456414	0.546183	-5.616528	-77.578904	93.533671
36017		0.555634	0.429728	-0.456402	0.546171	-5.603953	-77.579168	93.521150
36018		0.555651	0.429718	-0.456403	0.546160	-5.600577	-77.578315	93.515481
36019		0.555756	0.429634	-0.456470	0.546063	-5.596575	-77.577132	93.491092
36020		0.555849	0.429549	-0.456562	0.545959	-5.602587	-77.578256	93.475601
36021		0.555987	0.429416	-0.456632	0.545863	-5.604520	-77.572388	93.452349
36022		0.556063	0.429373	-0.456632	0.545820	-5.587757	-77.568376	93.426256
36023		0.556138	0.429304	-0.456655	0.545780	-5.586028	-77.563788	93.412558
36024		0.556202	0.429261	-0.456639	0.545762	-5.572396	-77.558027	93.392655
36025		0.556315	0.429200	-0.456628	0.545703	-5.543756	-77.551375	93.351158
36026		0.556398	0.429193	-0.456580	0.545665	-5.501507	-77.546310	93.304269
36027		0.556525	0.429143	-0.456568	0.545584	-5.462148	-77.540857	93.250742
36028		0.556667	0.429094	-0.456560	0.545484	-5.414881	-77.536020	93.187175
36029		0.556828	0.429032	-0.456553	0.545374	-5.365192	-77.530133	93.118641
36030		0.556927	0.429000	-0.456504	0.545339	-5.326124	-77.522337	93.072852
36031		0.557088	0.428940	-0.456516	0.545212	-5.278139	-77.518563	93.004159
36032		0.557234	0.428896	-0.456506	0.545105	-5.226941	-77.514096	92.936354
36033		0.557412	0.428849	-0.456472	0.544990	-5.159631	-77.506966	92.851378
36034		0.557545	0.428870	-0.456364	0.544927	-5.073652	-77.499277	92.761563
36035		0.557703	0.428892	-0.456260	0.544835	-4.975767	-77.492226	92.656406
36036		0.557934	0.428858	-0.456204	0.544673	-4.874699	-77.484666	92.534026
36037		0.558130	0.428896	-0.456121	0.544511	-4.754897	-77.481801	92.400468
36038		0.558338	0.428954	-0.456001	0.544352	-4.615499	-77.477339	92.250202
36039		0.558562	0.428964	-0.455917	0.544185	-4.494693	-77.471525	92.112217
36040		0.558763	0.428988	-0.455832	0.544032	-4.378916	-77.466668	91.982334
36041		0.558947	0.429033	-0.455751	0.543875	-4.262003	-77.464480	91.853047
36042		0.559126	0.429097	-0.455644	0.543730	-4.135588	-77.461530	91.717789
36043		0.559293	0.429184	-0.455519	0.543594	-4.002111	-77.459095	91.579100
36044		0.559405	0.429300	-0.455377	0.543506	-3.880180	-77.457491	91.460470
36045		0.559560	0.429413	-0.455249	0.543365	-3.740396	-77.457231	91.317534
36046		0.559668	0.429548	-0.455103	0.543270	-3.611398	-77.457017	91.193077
36047		0.559742	0.429692	-0.454966	0.543194	-3.494548	-77.458591	91.083798
36048		0.559834	0.429815	-0.454833	0.543113	-3.379693	-77.458269	90.973628
36049		0.559899	0.429956	-0.454694	0.543052	-3.268700	-77.459070	90.871519
36050		0.559897	0.430140	-0.454491	0.543077	-3.161825	-77.457381	90.788541
36051		0.559917	0.430274	-0.454367	0.543054	-3.077059	-77.458764	90.716095
36052		0.559879	0.430416	-0.454264	0.543067	-3.018157	-77.462829	90.674293
36053		0.559869	0.430533	-0.454236	0.543008	-2.966087	-77.472278	90.627829
36054		0.559925	0.430561	-0.454266	0.542903	-2.929797	-77.478652	90.582161
36055		0.559956	0.430601	-0.454284	0.542825	-2.898515	-77.485005	90.545893
36056		0.559939	0.430674	-0.454279	0.542788	-2.871998	-77.492164	90.522677
36057		0.559900	0.430727	-0.454346	0.542730	-2.873570	-77.504695	90.522323
36058		0.559867	0.430763	-0.454432	0.542663	-2.881780	-77.517437	90.525778
36059		0.559797	0.430834	-0.454492	0.542629	-2.888565	-77.530937	90.535311
36060		0.559696	0.430902	-0.454551	0.542630	-2.912059	-77.543852	90.565149
36061		0.559568	0.430999	-0.454597	0.542647	-2.933269	-77.558378	90.597767
36062		0.559439	0.431090	-0.454680	0.542638	-2.961927	-77.576120	90.633796
36063		0.559297	0.431198	-0.454752	0.542637	-2.987284	-77.594453	90.669444
36064		0.559151	0.431298	-0.454828	0.542645	-3.019066	-77.612333	90.711579
36065		0.559000	0.431404	-0.454909	0.542648	-3.051393	-77.631414	90.754265
36066		0.558880	0.431484	-0.455027	0.542609	-3.084611	-77.651742	90.789931
36067		0.558765	0.431556	-0.455176	0.542546	-3.123312	-77.674456	90.827345
36068		0.558580	0.431710	-0.455221	0.542575	-3.145398	-77.694729	90.868020
36069		0.558416	0.431786	-0.455291	0.542626	-3.197277	-77.709186	90.932754
36070		0.558273	0.431879	-0.455339	0.542658	-3.228513	-77.723447	90.976637
36071		0.558134	0.431954	-0.455376	0.542711	-3.264970	-77.734465	91.026382
36072		0.558018	0.432037	-0.455385	0.542756	-3.282832	-77.743735	91.057745
36073		0.557979	0.432069	-0.455427	0.542736	-3.292011	-77.751329	91.067435
36074		0.557922	0.432074	-0.455471	0.542753	-3.322381	-77.756201	91.099923
36075		0.557908	0.432026	-0.455528	0.542758	-3.357807	-77.756915	91.130376
36076		0.557904	0.431981	-0.455578	0.542756	-3.386467	-77.757339	91.153676
36077		0.557894	0.431940	-0.455631	0.542754	-3.416732	-77.758486	91.178970
36078		0.557899	0.431896	-0.455644	0.542773	-3.436927	-77.755201	91.196727
36079		0.557865	0.431940	-0.455576	0.542831	-3.424807	-77.752446	91.196387
36080		0.557832	0.431982	-0.455481	0.542910	-3.410169	-77.746763	91.195985
36081		0.557798	0.432062	-0.455315	0.543021	-3.370159	-77.737632	91.178530
36082		0.557755	0.432171	-0.455127	0.543136	-3.318040	-77.729195	91.152609
36083		0.557751	0.432236	-0.454999	0.543196	-3.274810	-77.722672	91.124150
36084		0.557754	0.432249	-0.454905	0.543261	-3.256083	-77.714203	91.115159
36085		0.557816	0.432207	-0.454849	0.543278	-3.239597	-77.704171	91.096932
36086		0.557845	0.432139	-0.454842	0.543308	-3.256548	-77.696358	91.110381
36087		0.557882	0.432072	-0.454844	0.543321	-3.269938	-77.689612	91.118356
36088		0.557845	0.432066	-0.454750	0.543443	-3.280152	-77.678750	91.142777
36089		0.557822	0.432050	-0.454701	0.543521	-3.293221	-77.671685	91.163586
36090		0.557794	0.432054	-0.454636	0.543600	-3.297033	-77.665190	91.177606
36091		0.557756	0.432073	-0.454569	0.543680	-3.298830	-77.659914	91.191134
36092		0.557673	0.432130	-0.454474	0.543799	-3.301172	-77.655539	91.213762
36093		0.557652	0.432164	-0.454392	0.543863	-3.285930	-77.650389	91.210191
36094		0.557598	0.432217	-0.454304	0.543949	-3.277010	-77.646546	91.217368
36095		0.557550	0.432293	-0.454193	0.544031	-3.252234	-77.642706	91.210874
36096		0.557444	0.432407	-0.454078	0.544145	-3.236521	-77.642122	91.221064
36097		0.557317	0.432526	-0.454004	0.544242	-3.233450	-77.646407	91.242017
36098		0.557221	0.432602	-0.454006	0.544278	-3.244677	-77.654284	91.265171
36099		0.557078	0.432725	-0.453962	0.544364	-3.250936	-77.661934	91.294332
36100		0.556942	0.432819	-0.453897	0.544482	-3.264920	-77.664429	91.332152
36101		0.556820	0.432923	-0.453876	0.544543	-3.273040	-77.672589	91.357938
36102		0.556673	0.433039	-0.453899	0.544580	-3.292106	-77.686650	91.392998
36103		0.556543	0.433119	-0.453956	0.544603	-3.324188	-77.700425	91.435202
36104		0.556392	0.433188	-0.454033	0.544637	-3.373835	-77.715117	91.495151
36105		0.556319	0.433177	-0.454167	0.544610	-3.430338	-77.727470	91.546000
36106		0.556249	0.433178	-0.454266	0.544598	-3.475554	-77.737529	91.588905
36107		0.556202	0.433180	-0.454337	0.544585	-3.505659	-77.744982	91.616973
36108		0.556155	0.433177	-0.454426	0.544561	-3.540114	-77.753729	91.647462
36109		0.556127	0.433167	-0.454489	0.544545	-3.566032	-77.759041	91.669909
36110		0.556092	0.433166	-0.454566	0.544517	-3.592315	-77.766860	91.692065
36111		0.556093	0.433169	-0.454654	0.544441	-3.601515	-77.776382	91.691992
36112		0.556133	0.433138	-0.454741	0.544351	-3.606897	-77.782525	91.683035
36113		0.556166	0.433150	-0.454766	0.544287	-3.588095	-77.786703	91.657888
36114		0.556193	0.433186	-0.454761	0.544235	-3.557333	-77.790177	91.624954
36115		0.556193	0.433242	-0.454746	0.544202	-3.529374	-77.794714	91.599196
36116		0.556204	0.433314	-0.454696	0.544177	-3.485129	-77.797211	91.559910
36117		0.556221	0.433399	-0.454624	0.544151	-3.428243	-77.798964	91.509590
36118		0.556241	0.433476	-0.454496	0.544177	-3.367010	-77.793856	91.460525
36119		0.556337	0.433521	-0.454417	0.544108	-3.290052	-77.791050	91.381278
36120		0.556459	0.433522	-0.454365	0.544026	-3.224179	-77.786345	91.306623
36121		0.556609	0.433505	-0.454362	0.543889	-3.158994	-77.785084	91.224115
36122		0.556704	0.433513	-0.454360	0.543787	-3.108646	-77.786310	91.163054
36123		0.556796	0.433498	-0.454386	0.543682	-3.073909	-77.788025	91.114553
36124		0.556810	0.433537	-0.454315	0.543696	-3.040368	-77.784812	91.087307
36125		0.556858	0.433585	-0.454244	0.543668	-2.986331	-77.782738	91.035727
36126		0.556878	0.433674	-0.454150	0.543655	-2.923844	-77.782389	90.981916
36127		0.556954	0.433697	-0.454096	0.543604	-2.869929	-77.779616	90.925158
36128		0.557087	0.433650	-0.454077	0.543522	-2.825503	-77.773192	90.866646
36129		0.557226	0.433577	-0.454092	0.543425	-2.794354	-77.767831	90.816813
36130		0.557321	0.433543	-0.454062	0.543381	-2.761212	-77.761371	90.775450
36131		0.557449	0.433467	-0.454081	0.543292	-2.736594	-77.756044	90.732837
36132		0.557537	0.433401	-0.454070	0.543265	-2.724243	-77.748161	90.710658
36133		0.557570	0.433392	-0.454069	0.543239	-2.712473	-77.747344	90.694985
36134		0.557562	0.433439	-0.454028	0.543244	-2.689821	-77.747976	90.678205
36135		0.557567	0.433455	-0.454017	0.543235	-2.678313	-77.748551	90.667472
36136		0.557577	0.433477	-0.453980	0.543238	-2.658670	-77.747035	90.650781
36137		0.557548	0.433487	-0.453963	0.543275	-2.666569	-77.746093	90.664069
36138		0.557511	0.433497	-0.453915	0.543344	-2.673834	-77.741994	90.680817
36139		0.557472	0.433503	-0.453889	0.543401	-2.687412	-77.739669	90.701720
36140		0.557416	0.433497	-0.453912	0.543443	-2.719561	-77.741292	90.737845
36141		0.557413	0.433432	-0.453946	0.543472	-2.756065	-77.737791	90.770511
36142		0.557451	0.433357	-0.453995	0.543451	-2.778508	-77.735184	90.782318
36143		0.557448	0.433309	-0.454023	0.543469	-2.805875	-77.733018	90.806531
36144		0.557388	0.433298	-0.454042	0.543523	-2.842203	-77.733600	90.847757
36145		0.557310	0.433313	-0.454051	0.543583	-2.873893	-77.735644	90.887704
36146		0.557169	0.433393	-0.453972	0.543730	-2.895462	-77.735113	90.935070
36147		0.557030	0.433441	-0.453941	0.543861	-2.936608	-77.736198	90.996329
36148		0.556937	0.433466	-0.453933	0.543942	-2.969120	-77.737640	91.040778
36149		0.556843	0.433466	-0.453970	0.544008	-3.018853	-77.740967	91.097585
36150		0.556757	0.433455	-0.453984	0.544093	-3.066939	-77.740780	91.154187
36151		0.556722	0.433410	-0.454027	0.544129	-3.110064	-77.740318	91.196284
36152		0.556676	0.433356	-0.454058	0.544194	-3.161491	-77.737425	91.249164
36153		0.556645	0.433332	-0.454069	0.544235	-3.188757	-77.735887	91.278588
36154		0.556568	0.433344	-0.454065	0.544307	-3.219832	-77.736293	91.319225
36155		0.556491	0.433372	-0.454032	0.544391	-3.240166	-77.735343	91.352263
36156		0.556416	0.433413	-0.453946	0.544507	-3.247380	-77.730249	91.377867
36157		0.556322	0.433483	-0.453869	0.544612	-3.250973	-77.729148	91.401343
36158		0.556214	0.433516	-0.453834	0.544724	-3.283312	-77.728397	91.450308
36159		0.556133	0.433520	-0.453815	0.544819	-3.318293	-77.726339	91.496687
36160		0.556100	0.433453	-0.453835	0.544890	-3.367781	-77.720938	91.547168
36161		0.556094	0.433413	-0.453842	0.544921	-3.389905	-77.717472	91.568711
36162		0.556090	0.433372	-0.453823	0.544975	-3.409120	-77.710916	91.589981
36163		0.556112	0.433324	-0.453830	0.544984	-3.421381	-77.706714	91.598294
36164		0.556122	0.433267	-0.453824	0.545025	-3.442606	-77.699948	91.618340
36165		0.556110	0.433231	-0.453833	0.545058	-3.465963	-77.696947	91.641804
36166		0.556053	0.433251	-0.453798	0.545130	-3.480384	-77.695045	91.666693
36167		0.556008	0.433278	-0.453775	0.545174	-3.486561	-77.695207	91.680964
36168		0.556015	0.433245	-0.453769	0.545197	-3.497447	-77.691150	91.691202
36169		0.556010	0.433221	-0.453753	0.545234	-3.509235	-77.686895	91.704973
36170		0.555983	0.433201	-0.453729	0.545298	-3.528649	-77.681913	91.729847
36171		0.555985	0.433206	-0.453684	0.545329	-3.519893	-77.677782	91.725636
36172		0.555971	0.433234	-0.453599	0.545392	-3.503304	-77.671761	91.719940
36173		0.555967	0.433242	-0.453543	0.545437	-3.495005	-77.666670	91.718123
36174		0.555893	0.433294	-0.453413	0.545579	-3.490863	-77.658176	91.736917
36175		0.555887	0.433327	-0.453331	0.545626	-3.468501	-77.653232	91.724289
36176		0.555864	0.433357	-0.453234	0.545707	-3.454051	-77.646015	91.723086
36177		0.555869	0.433335	-0.453208	0.545741	-3.459010	-77.641017	91.729975
36178		0.555859	0.433311	-0.453212	0.545767	-3.475201	-77.638691	91.746613
36179		0.555859	0.433266	-0.453206	0.545807	-3.495070	-77.633300	91.766480
36180		0.555861	0.433237	-0.453128	0.545893	-3.498117	-77.621971	91.777158
36181		0.555844	0.433216	-0.453072	0.545974	-3.509484	-77.613645	91.796272
36182		0.555798	0.433202	-0.453030	0.546067	-3.532775	-77.607520	91.829164
36183		0.555728	0.433235	-0.452925	0.546199	-3.538187	-77.599539	91.854190
36184		0.555685	0.433235	-0.452829	0.546323	-3.547255	-77.589188	91.878384
36185		0.555685	0.433183	-0.452769	0.546413	-3.563247	-77.577343	91.900013
36186		0.555641	0.433154	-0.452700	0.546538	-3.589267	-77.566601	91.938011
36187		0.555656	0.433074	-0.452712	0.546576	-3.620012	-77.559377	91.964766
36188		0.555639	0.433026	-0.452667	0.546668	-3.644538	-77.549371	91.995463
36189		0.555608	0.432979	-0.452634	0.546765	-3.676925	-77.540638	92.034360
36190		0.555553	0.432965	-0.452510	0.546935	-3.694255	-77.525700	92.070933
36191		0.555486	0.432984	-0.452388	0.547088	-3.702067	-77.514624	92.099571
36192		0.555425	0.433009	-0.452283	0.547218	-3.706911	-77.505861	92.122900
36193		0.555388	0.432998	-0.452217	0.547318	-3.721034	-77.497484	92.148099
36194		0.555403	0.432966	-0.452192	0.547349	-3.725378	-77.491614	92.152948
36195		0.555437	0.432911	-0.452198	0.547353	-3.734823	-77.486437	92.157091
36196		0.555484	0.432855	-0.452171	0.547371	-3.734348	-77.477913	92.153290
36197		0.555534	0.432782	-0.452183	0.547368	-3.745454	-77.471583	92.156410
36198		0.555544	0.432791	-0.452138	0.547388	-3.731437	-77.467988	92.146123
36199		0.555534	0.432818	-0.452060	0.547442	-3.714404	-77.462594	92.138848
36200		0.555517	0.432844	-0.451977	0.547508	-3.700736	-77.456567	92.136171
36201		0.555510	0.432860	-0.451906	0.547560	-3.687936	-77.450958	92.131818
36202		0.555494	0.432908	-0.451807	0.547620	-3.661714	-77.445682	92.118410
36203		0.555520	0.432897	-0.451759	0.547641	-3.648081	-77.439654	92.106604
36204		0.555590	0.432877	-0.451727	0.547613	-3.620656	-77.434600	92.074264
36205		0.555638	0.432845	-0.451684	0.547625	-3.607463	-77.426945	92.059529
36206		0.555667	0.432866	-0.451624	0.547629	-3.577136	-77.423035	92.032510
36207		0.555703	0.432859	-0.451584	0.547630	-3.558111	-77.418417	92.013373
36208		0.555742	0.432830	-0.451566	0.547629	-3.551351	-77.413630	92.003622
36209		0.555762	0.432808	-0.451548	0.547640	-3.549523	-77.409552	92.001114
36210		0.555766	0.432819	-0.451501	0.547666	-3.536628	-77.405817	91.992792
36211		0.555786	0.432799	-0.451489	0.547672	-3.535216	-77.402454	91.990074
36212		0.555783	0.432780	-0.451450	0.547723	-3.540558	-77.396350	91.999683
36213		0.555799	0.432751	-0.451429	0.547746	-3.543349	-77.391100	92.002427
36214		0.555821	0.432766	-0.451381	0.547752	-3.520937	-77.387889	91.982715
36215		0.555810	0.432795	-0.451321	0.547789	-3.505347	-77.384629	91.975008
36216		0.555801	0.432824	-0.451226	0.547854	-3.485400	-77.377786	91.966429
36217		0.555796	0.432833	-0.451188	0.547882	-3.478595	-77.374822	91.964256
36218		0.555800	0.432833	-0.451151	0.547909	-3.472427	-77.370974	91.961556
36219		0.555803	0.432796	-0.451155	0.547932	-3.487743	-77.367435	91.975629
36220		0.555816	0.432769	-0.451170	0.547928	-3.496162	-77.366106	91.980594
36221		0.555823	0.432737	-0.451159	0.547955	-3.505640	-77.361587	91.990082
36222		0.555754	0.432760	-0.451088	0.548066	-3.518901	-77.356186	92.019141
36223		0.555732	0.432741	-0.451107	0.548087	-3.540025	-77.355964	92.040510
36224		0.555755	0.432684	-0.451180	0.548049	-3.563567	-77.357575	92.053071
36225		0.555738	0.432692	-0.451215	0.548031	-3.572569	-77.362053	92.060486
36226		0.555674	0.432747	-0.451208	0.548059	-3.576819	-77.366734	92.073593
36227		0.555666	0.432771	-0.451198	0.548055	-3.568314	-77.368280	92.067268
36228		0.555705	0.432768	-0.451190	0.548025	-3.551023	-77.367387	92.046295
36229		0.555688	0.432787	-0.451172	0.548042	-3.547959	-77.367516	92.047353
36230		0.555732	0.432739	-0.451192	0.548020	-3.551735	-77.364589	92.043371
36231		0.555754	0.432696	-0.451242	0.547990	-3.566555	-77.365360	92.049868
36232		0.555782	0.432658	-0.451304	0.547940	-3.578054	-77.368008	92.051089
36233		0.555789	0.432650	-0.451331	0.547917	-3.581626	-77.369882	92.050960
36234		0.555762	0.432656	-0.451340	0.547932	-3.592618	-77.371383	92.064154
36235		0.555760	0.432662	-0.451359	0.547914	-3.593282	-77.373939	92.063116
36236		0.555716	0.432688	-0.451348	0.547947	-3.600939	-77.375287	92.077396
36237		0.555727	0.432680	-0.451323	0.547963	-3.596192	-77.371885	92.073976
36238		0.555692	0.432721	-0.451268	0.548011	-3.587172	-77.370391	92.075133
36239		0.555685	0.432739	-0.451210	0.548052	-3.575373	-77.366204	92.070543
36240		0.555668	0.432743	-0.451159	0.548108	-3.575385	-77.361255	92.077926
36241		0.555675	0.432729	-0.451137	0.548130	-3.575663	-77.357395	92.079537
36242		0.555690	0.432699	-0.451145	0.548132	-3.582946	-77.355108	92.083841
36243		0.555699	0.432645	-0.451183	0.548134	-3.607791	-77.353282	92.102939
36244		0.555760	0.432529	-0.451294	0.548072	-3.645024	-77.352815	92.120045
36245		0.555760	0.432484	-0.451289	0.548112	-3.664460	-77.347368	92.139503
36246		0.555713	0.432508	-0.451197	0.548216	-3.664375	-77.340048	92.154734
36247		0.555692	0.432483	-0.451174	0.548277	-3.682574	-77.334791	92.177583
36248		0.555645	0.432479	-0.451107	0.548382	-3.697643	-77.327035	92.205078
36249		0.555661	0.432431	-0.451078	0.548428	-3.708268	-77.318950	92.216245
36250		0.555695	0.432369	-0.451061	0.548456	-3.717857	-77.310696	92.222880
36251		0.555737	0.432323	-0.451030	0.548475	-3.715143	-77.302833	92.218021
36252		0.555754	0.432283	-0.450970	0.548539	-3.717281	-77.292270	92.223990
36253		0.555782	0.432213	-0.450969	0.548567	-3.735747	-77.284717	92.238431
36254		0.555798	0.432185	-0.450929	0.548605	-3.735725	-77.277693	92.240437
36255		0.555789	0.432153	-0.450904	0.548661	-3.751324	-77.271484	92.259321
36256		0.555802	0.432111	-0.450892	0.548689	-3.762018	-77.265878	92.269121
36257		0.555816	0.432087	-0.450820	0.548754	-3.757675	-77.255807	92.270463
36258		0.555815	0.432072	-0.450754	0.548820	-3.756527	-77.247368	92.276168
36259		0.555843	0.432015	-0.450712	0.548872	-3.763749	-77.236898	92.283824
36260		0.555917	0.431952	-0.450694	0.548862	-3.755370	-77.228671	92.268003
36261		0.555919	0.431968	-0.450595	0.548928	-3.734983	-77.220172	92.257925
36262		0.555897	0.432017	-0.450450	0.549030	-3.705405	-77.210261	92.246669
36263		0.555871	0.432041	-0.450346	0.549124	-3.694190	-77.201744	92.249766
36264		0.555884	0.432022	-0.450281	0.549179	-3.688612	-77.192955	92.249260
36265		0.555914	0.432017	-0.450223	0.549199	-3.669939	-77.186655	92.233069
36266		0.555936	0.432005	-0.450166	0.549234	-3.658601	-77.179537	92.225020
36267		0.555964	0.431948	-0.450136	0.549274	-3.666698	-77.170497	92.232295
36268		0.555958	0.431891	-0.450053	0.549393	-3.684226	-77.155616	92.258512
36269		0.555879	0.431857	-0.449974	0.549565	-3.725671	-77.143173	92.316977
36270		0.555801	0.431792	-0.449917	0.549742	-3.782754	-77.129615	92.388343
36271		0.555718	0.431770	-0.449848	0.549898	-3.821204	-77.119512	92.443241
36272		0.555586	0.431758	-0.449766	0.550108	-3.876292	-77.108752	92.522037
36273		0.555549	0.431656	-0.449794	0.550203	-3.941165	-77.100248	92.587019
36274		0.555558	0.431539	-0.449841	0.550247	-3.993915	-77.092622	92.632360
36275		0.555538	0.431470	-0.449842	0.550322	-4.033319	-77.084995	92.673124
36276		0.555448	0.431481	-0.449764	0.550467	-4.058795	-77.077401	92.717317
36277		0.555445	0.431444	-0.449738	0.550520	-4.072822	-77.070677	92.733959
36278		0.555425	0.431397	-0.449692	0.550615	-4.096874	-77.060716	92.764544
36279		0.555375	0.431391	-0.449609	0.550738	-4.111663	-77.051021	92.793734
36280		0.555305	0.431410	-0.449537	0.550852	-4.125478	-77.045147	92.823390
36281		0.555261	0.431390	-0.449519	0.550927	-4.151817	-77.040744	92.856460
36282		0.555215	0.431396	-0.449469	0.551009	-4.163507	-77.035774	92.878770
36283		0.555226	0.431392	-0.449474	0.550998	-4.160997	-77.035953	92.874458
36284		0.555238	0.431402	-0.449463	0.550987	-4.150141	-77.036026	92.863483
36285		0.555293	0.431386	-0.449439	0.550963	-4.129099	-77.032192	92.838417
36286		0.555346	0.431429	-0.449390	0.550916	-4.080480	-77.032144	92.789270
36287		0.555412	0.431450	-0.449346	0.550869	-4.035910	-77.030403	92.741983
36288		0.555458	0.431502	-0.449279	0.550837	-3.984579	-77.029372	92.692921
36289		0.555499	0.431558	-0.449240	0.550784	-3.936901	-77.031609	92.645317
36290		0.555572	0.431591	-0.449203	0.550714	-3.885111	-77.031907	92.589314
36291		0.555636	0.431645	-0.449182	0.550624	-3.830475	-77.036054	92.530173
36292		0.555704	0.431718	-0.449184	0.550496	-3.768162	-77.044702	92.460642
36293		0.555805	0.431739	-0.449224	0.550346	-3.718669	-77.051783	92.395546
36294		0.555894	0.431811	-0.449245	0.550182	-3.649346	-77.062374	92.314622
36295		0.555952	0.431906	-0.449227	0.550063	-3.579397	-77.071152	92.240956
36296		0.555983	0.432021	-0.449198	0.549965	-3.511509	-77.080784	92.174083
36297		0.555981	0.432125	-0.449178	0.549903	-3.464773	-77.089768	92.131007
36298		0.556009	0.432198	-0.449189	0.549808	-3.421145	-77.098983	92.083874
36299		0.556034	0.432261	-0.449202	0.549722	-3.383643	-77.107337	92.042774
36300		0.556056	0.432306	-0.449218	0.549652	-3.355936	-77.113965	92.011534
36301		0.556098	0.432307	-0.449268	0.549567	-3.342108	-77.119611	91.987485
36302		0.556117	0.432343	-0.449307	0.549488	-3.322532	-77.127616	91.962078
36303		0.556119	0.432374	-0.449330	0.549442	-3.310403	-77.133432	91.947674
36304		0.556109	0.432416	-0.449342	0.549410	-3.297880	-77.139081	91.935612
36305		0.556114	0.432434	-0.449343	0.549390	-3.287892	-77.141097	91.925188
36306		0.556096	0.432435	-0.449388	0.549370	-3.300719	-77.145859	91.935392
36307		0.556009	0.432469	-0.449444	0.549385	-3.332166	-77.154860	91.971473
36308		0.555936	0.432501	-0.449490	0.549398	-3.357349	-77.162552	92.000831
36309		0.555880	0.432518	-0.449560	0.549383	-3.383873	-77.171336	92.026676
36310		0.555859	0.432482	-0.449580	0.549415	-3.411489	-77.169521	92.054058
36311		0.555835	0.432471	-0.449585	0.549444	-3.427914	-77.168763	92.072687
36312		0.555766	0.432473	-0.449592	0.549507	-3.459474	-77.169266	92.111540
36313		0.555693	0.432452	-0.449647	0.549553	-3.508832	-77.172153	92.163380
36314		0.555653	0.432382	-0.449732	0.549579	-3.568495	-77.173258	92.217921
36315		0.555604	0.432328	-0.449794	0.549619	-3.621949	-77.173563	92.269805
36316		0.555558	0.432240	-0.449852	0.549688	-3.689160	-77.169689	92.335237
36317		0.555556	0.432131	-0.449927	0.549714	-3.746965	-77.165782	92.384054
36318		0.555560	0.432045	-0.449998	0.549719	-3.791691	-77.163924	92.419790
36319		0.555553	0.431993	-0.450053	0.549722	-3.824472	-77.163953	92.446944
36320		0.555488	0.431995	-0.450034	0.549803	-3.851010	-77.161630	92.483110
36321		0.555426	0.432021	-0.450002	0.549870	-3.863863	-77.160752	92.506747
36322		0.555334	0.432082	-0.449927	0.549977	-3.869652	-77.158883	92.531832
36323		0.555276	0.432114	-0.449880	0.550049	-3.876749	-77.157033	92.550977
36324		0.555234	0.432139	-0.449855	0.550093	-3.881535	-77.156773	92.563610
36325		0.555196	0.432196	-0.449814	0.550120	-3.868924	-77.158476	92.560462
36326		0.555132	0.432245	-0.449800	0.550158	-3.874925	-77.161904	92.575957
36327		0.555067	0.432299	-0.449755	0.550217	-3.875133	-77.162639	92.588949
36328		0.555012	0.432338	-0.449721	0.550270	-3.879288	-77.162912	92.603619
36329		0.554950	0.432383	-0.449697	0.550317	-3.884437	-77.164861	92.618977
36330		0.554892	0.432422	-0.449672	0.550364	-3.890785	-77.166208	92.635093
36331		0.554864	0.432409	-0.449711	0.550372	-3.914261	-77.168524	92.657626
36332		0.554862	0.432406	-0.449727	0.550362	-3.918193	-77.169922	92.660024
36333		0.554832	0.432404	-0.449769	0.550360	-3.938440	-77.173891	92.679380
36334		0.554790	0.432403	-0.449841	0.550344	-3.967117	-77.180972	92.705343
36335		0.554744	0.432433	-0.449842	0.550367	-3.975130	-77.183914	92.718989
36336		0.554663	0.432503	-0.449794	0.550432	-3.975168	-77.186038	92.734242
36337		0.554561	0.432580	-0.449755	0.550506	-3.983092	-77.189569	92.759065
36338		0.554449	0.432648	-0.449726	0.550589	-4.000792	-77.193165	92.793629
36339		0.554381	0.432682	-0.449726	0.550632	-4.017194	-77.196312	92.818355
36340		0.554356	0.432704	-0.449720	0.550644	-4.017845	-77.197976	92.822753
36341		0.554352	0.432638	-0.449752	0.550673	-4.052630	-77.194147	92.853759
36342		0.554295	0.432611	-0.449766	0.550741	-4.092574	-77.192207	92.898571
36343		0.554256	0.432560	-0.449824	0.550772	-4.139974	-77.192377	92.943728
36344		0.554138	0.432585	-0.449780	0.550907	-4.176917	-77.189646	92.999206
36345		0.554078	0.432570	-0.449803	0.550960	-4.213766	-77.189969	93.040392
36346		0.553965	0.432605	-0.449797	0.551052	-4.249428	-77.192270	93.090210
36347		0.553890	0.432607	-0.449808	0.551117	-4.284353	-77.193017	93.132793
36348		0.553865	0.432608	-0.449820	0.551132	-4.297351	-77.194167	93.147365
36349		0.553856	0.432595	-0.449814	0.551155	-4.305879	-77.192158	93.157379
36350		0.553841	0.432564	-0.449819	0.551191	-4.326848	-77.189051	93.179242
36351		0.553872	0.432503	-0.449839	0.551191	-4.341590	-77.184756	93.187470
36352		0.553891	0.432461	-0.449889	0.551165	-4.357953	-77.185409	93.195912
36353		0.553863	0.432447	-0.449927	0.551172	-4.381586	-77.187672	93.218614
36354		0.553821	0.432480	-0.449887	0.551221	-4.381169	-77.186744	93.227587
36355		0.553807	0.432490	-0.449883	0.551231	-4.382873	-77.187339	93.231513
36356		0.553791	0.432519	-0.449846	0.551254	-4.372792	-77.186549	93.227445
36357		0.553765	0.432566	-0.449792	0.551288	-4.356853	-77.185898	93.220885
36358		0.553743	0.432629	-0.449760	0.551286	-4.335853	-77.189298	93.206449
36359		0.553760	0.432639	-0.449759	0.551262	-4.323414	-77.190428	93.192226
36360		0.553801	0.432636	-0.449755	0.551226	-4.305372	-77.190073	93.169884
36361		0.553862	0.432603	-0.449766	0.551183	-4.293333	-77.187960	93.149320
36362		0.553937	0.432543	-0.449825	0.551106	-4.292880	-77.188099	93.133218
36363		0.553998	0.432499	-0.449895	0.551022	-4.293384	-77.191020	93.118828
36364		0.553979	0.432544	-0.449857	0.551037	-4.277595	-77.191887	93.109756
36365		0.553940	0.432603	-0.449828	0.551053	-4.265999	-77.195033	93.106381
36366		0.553871	0.432668	-0.449818	0.551080	-4.267636	-77.200607	93.117946
36367		0.553853	0.432676	-0.449853	0.551062	-4.276916	-77.205028	93.125660
36368		0.553870	0.432668	-0.449901	0.551014	-4.279200	-77.209085	93.120946
36369		0.553909	0.432646	-0.449971	0.550934	-4.279917	-77.214343	93.109509
36370		0.553948	0.432592	-0.450053	0.550871	-4.296086	-77.217175	93.111915
36371		0.554008	0.432514	-0.450145	0.550796	-4.314626	-77.218683	93.112940
36372		0.554074	0.432417	-0.450223	0.550742	-4.336660	-77.216736	93.117894
36373		0.554143	0.432322	-0.450298	0.550686	-4.356230	-77.214681	93.120480
36374		0.554183	0.432285	-0.450333	0.550646	-4.358670	-77.214662	93.114170
36375		0.554234	0.432251	-0.450366	0.550595	-4.354171	-77.214686	93.099945
36376		0.554242	0.432259	-0.450370	0.550577	-4.347852	-77.216071	93.092384
36377		0.554250	0.432283	-0.450362	0.550557	-4.332591	-77.217891	93.077344
36378		0.554251	0.432299	-0.450338	0.550563	-4.322073	-77.217169	93.069477
36379		0.554227	0.432338	-0.450297	0.550590	-4.310636	-77.217010	93.065476
36380		0.554210	0.432390	-0.450224	0.550625	-4.286444	-77.215022	93.051522
36381		0.554187	0.432430	-0.450190	0.550646	-4.275456	-77.215578	93.047339
36382		0.554186	0.432416	-0.450186	0.550661	-4.281306	-77.213637	93.053578
36383		0.554183	0.432392	-0.450263	0.550619	-4.302887	-77.219065	93.067069
36384		0.554257	0.432261	-0.450401	0.550535	-4.344128	-77.219621	93.083649
36385		0.554344	0.432142	-0.450521	0.550442	-4.371502	-77.219762	93.086880
36386		0.554362	0.432067	-0.450593	0.550424	-4.405080	-77.219277	93.109896
36387		0.554343	0.432038	-0.450627	0.550438	-4.430687	-77.219409	93.133842
36388		0.554283	0.432040	-0.450630	0.550494	-4.457643	-77.219440	93.167371
36389		0.554203	0.432097	-0.450608	0.550549	-4.466946	-77.222755	93.188960
36390		0.554173	0.432126	-0.450563	0.550592	-4.461922	-77.221042	93.192452
36391		0.554195	0.432048	-0.450623	0.550583	-4.493729	-77.218874	93.214602
36392		0.554257	0.431968	-0.450692	0.550527	-4.509252	-77.217780	93.214654
36393		0.554329	0.431898	-0.450765	0.550449	-4.515753	-77.218340	93.204223
36394		0.554345	0.431870	-0.450830	0.550402	-4.529505	-77.222123	93.208969
36395		0.554380	0.431820	-0.450884	0.550361	-4.542029	-77.222599	93.211198
36396		0.554418	0.431761	-0.450913	0.550346	-4.553965	-77.219428	93.214913
36397		0.554412	0.431743	-0.450952	0.550333	-4.569322	-77.221483	93.226661
36398		0.554397	0.431736	-0.450987	0.550327	-4.584178	-77.224168	93.239625
36399		0.554378	0.431725	-0.451021	0.550325	-4.601702	-77.226432	93.255541
36400		0.554398	0.431682	-0.451020	0.550340	-4.610901	-77.221726	93.261997
36401		0.554471	0.431607	-0.451050	0.550301	-4.614232	-77.217265	93.252827
36402		0.554563	0.431522	-0.451077	0.550253	-4.612472	-77.211457	93.236497
36403		0.554670	0.431433	-0.451088	0.550206	-4.603470	-77.203724	93.212837
36404		0.554778	0.431370	-0.451064	0.550167	-4.578599	-77.195171	93.177255
36405		0.554852	0.431359	-0.451019	0.550137	-4.543683	-77.189975	93.138250
36406		0.554892	0.431341	-0.450915	0.550197	-4.519798	-77.177445	93.120479
36407		0.554933	0.431312	-0.450873	0.550212	-4.507639	-77.170272	93.107559
36408		0.554986	0.431237	-0.450880	0.550211	-4.516896	-77.163286	93.108914
36409		0.555033	0.431155	-0.450883	0.550226	-4.531331	-77.154945	93.116700
36410		0.555122	0.431070	-0.450852	0.550228	-4.523477	-77.143186	93.100696
36411		0.555192	0.431016	-0.450814	0.550231	-4.510284	-77.133921	93.082690
36412		0.555295	0.430921	-0.450770	0.550237	-4.498855	-77.119789	93.062679
36413		0.555375	0.430884	-0.450694	0.550249	-4.468800	-77.108378	93.030969
36414		0.555389	0.430883	-0.450546	0.550355	-4.443201	-77.093163	93.019048
36415		0.555425	0.430871	-0.450457	0.550401	-4.420903	-77.082851	93.001784
36416		0.555390	0.430881	-0.450394	0.550481	-4.424496	-77.077060	93.016174
36417		0.555397	0.430851	-0.450395	0.550497	-4.434511	-77.073884	93.025006
36418		0.555368	0.430828	-0.450409	0.550532	-4.459203	-77.072643	93.051248
36419		0.555343	0.430806	-0.450474	0.550521	-4.488086	-77.076819	93.075993
36420		0.555302	0.430768	-0.450528	0.550548	-4.530284	-77.077944	93.116745
36421		0.555289	0.430739	-0.450597	0.550527	-4.557084	-77.081900	93.137408
36422		0.555282	0.430725	-0.450687	0.550471	-4.577889	-77.089663	93.149374
36423		0.555270	0.430704	-0.450811	0.550399	-4.608774	-77.100071	93.168425
36424		0.555289	0.430654	-0.450936	0.550317	-4.637778	-77.107697	93.181606
36425		0.555299	0.430629	-0.451066	0.550219	-4.660878	-77.118626	93.189555
36426		0.555247	0.430656	-0.451147	0.550184	-4.683222	-77.129573	93.209805
36427		0.555263	0.430612	-0.451300	0.550077	-4.714982	-77.140750	93.223158
36428		0.555265	0.430579	-0.451453	0.549975	-4.748156	-77.153046	93.239571
36429		0.555272	0.430567	-0.451600	0.549857	-4.769177	-77.167068	93.244232
36430		0.555227	0.430566	-0.451702	0.549819	-4.803476	-77.177263	93.272957
36431		0.555235	0.430581	-0.451772	0.549741	-4.802413	-77.186273	93.263854
36432		0.555201	0.430629	-0.451803	0.549713	-4.801650	-77.194479	93.264462
36433		0.555224	0.430628	-0.451885	0.549624	-4.802511	-77.203043	93.253971
36434		0.555253	0.430603	-0.451982	0.549534	-4.812316	-77.210677	93.249947
36435		0.555304	0.430578	-0.452087	0.549415	-4.813424	-77.219302	93.233759
36436		0.555277	0.430634	-0.452125	0.549368	-4.806924	-77.229121	93.227256
36437		0.555316	0.430645	-0.452167	0.549285	-4.789324	-77.235097	93.200782
36438		0.555315	0.430683	-0.452207	0.549223	-4.778979	-77.243445	93.186817
36439		0.555323	0.430727	-0.452212	0.549176	-4.756538	-77.248875	93.163395
36440		0.555282	0.430799	-0.452185	0.549184	-4.740649	-77.253587	93.156100
36441		0.555271	0.430820	-0.452202	0.549165	-4.739298	-77.257536	93.154459
36442		0.555296	0.430785	-0.452286	0.549098	-4.753832	-77.262709	93.156886
36443		0.555324	0.430740	-0.452347	0.549054	-4.768206	-77.264350	93.161032
36444		0.555380	0.430684	-0.452420	0.548982	-4.776456	-77.266267	93.154420
36445		0.555427	0.430628	-0.452484	0.548925	-4.787363	-77.267232	93.152418
36446		0.555474	0.430605	-0.452523	0.548864	-4.781000	-77.269166	93.136279
36447		0.555472	0.430611	-0.452548	0.548840	-4.782447	-77.272418	93.135437
36448		0.555483	0.430617	-0.452536	0.548835	-4.773368	-77.271821	93.126380
36449		0.555488	0.430651	-0.452525	0.548811	-4.754448	-77.274615	93.108378
36450		0.555493	0.430683	-0.452515	0.548789	-4.736883	-77.277065	93.091711
36451		0.555528	0.430651	-0.452564	0.548738	-4.740886	-77.278960	93.086116
36452		0.555563	0.430597	-0.452628	0.548693	-4.756857	-77.280010	93.090681
36453		0.555610	0.430539	-0.452667	0.548659	-4.765927	-77.278107	93.089372
36454		0.555666	0.430491	-0.452714	0.548601	-4.766819	-77.278139	93.078281
36455		0.555669	0.430460	-0.452766	0.548579	-4.785550	-77.280203	93.090784
36456		0.555703	0.430440	-0.452779	0.548550	-4.780386	-77.279707	93.080054
36457		0.555714	0.430454	-0.452779	0.548528	-4.769209	-77.281317	93.067800
36458		0.555692	0.430513	-0.452728	0.548545	-4.746905	-77.282390	93.054140
36459		0.555700	0.430537	-0.452720	0.548525	-4.731611	-77.284232	93.039084
36460		0.555715	0.430536	-0.452733	0.548500	-4.727374	-77.285578	93.031717
36461		0.555718	0.430522	-0.452774	0.548474	-4.737027	-77.288362	93.036455
36462		0.555719	0.430529	-0.452826	0.548425	-4.740217	-77.294539	93.034310
36463		0.555722	0.430498	-0.452871	0.548409	-4.758500	-77.295886	93.046998
36464		0.555708	0.430497	-0.452879	0.548417	-4.766164	-77.296539	93.055441
36465		0.555726	0.430431	-0.452943	0.548398	-4.795013	-77.296001	93.074704
36466		0.555751	0.430374	-0.452992	0.548376	-4.814453	-77.295233	93.085304
36467		0.555746	0.430374	-0.453020	0.548359	-4.820873	-77.297998	93.089441
36468		0.555678	0.430417	-0.452973	0.548433	-4.827234	-77.297215	93.109095
36469		0.555629	0.430434	-0.452928	0.548507	-4.836862	-77.293917	93.129446
36470		0.555600	0.430423	-0.452906	0.548562	-4.851959	-77.290247	93.150016
36471		0.555580	0.430378	-0.452963	0.548571	-4.887784	-77.291049	93.181621
36472		0.555581	0.430302	-0.453070	0.548541	-4.934783	-77.293857	93.216254
36473		0.555586	0.430229	-0.453171	0.548510	-4.977231	-77.296365	93.246642
36474		0.555592	0.430152	-0.453226	0.548519	-5.015077	-77.293718	93.276976
36475		0.555594	0.430067	-0.453287	0.548534	-5.059178	-77.290711	93.313448
36476		0.555603	0.429981	-0.453334	0.548553	-5.098467	-77.286258	93.345718
36477		0.555564	0.429928	-0.453379	0.548596	-5.145444	-77.284818	93.391744
36478		0.555503	0.429903	-0.453370	0.548685	-5.182766	-77.280581	93.436728
36479		0.555428	0.429920	-0.453346	0.548768	-5.207174	-77.279090	93.472649
36480		0.555364	0.429900	-0.453329	0.548862	-5.242578	-77.274535	93.516982
36481		0.555329	0.429849	-0.453329	0.548938	-5.281158	-77.268549	93.559040
36482		0.555284	0.429825	-0.453301	0.549025	-5.308222	-77.262525	93.593901
36483		0.555277	0.429764	-0.453288	0.549091	-5.335980	-77.254466	93.623038
36484		0.555201	0.429759	-0.453242	0.549209	-5.366870	-77.248372	93.667507
36485		0.555158	0.429707	-0.453207	0.549322	-5.403712	-77.238526	93.712314
36486		0.555070	0.429696	-0.453172	0.549448	-5.444164	-77.232849	93.766549
36487		0.555009	0.429658	-0.453158	0.549552	-5.486420	-77.226512	93.816923
36488		0.554943	0.429594	-0.453197	0.549636	-5.549069	-77.222900	93.882211
36489		0.554881	0.429526	-0.453235	0.549720	-5.611751	-77.218619	93.947223
36490		0.554810	0.429494	-0.453250	0.549805	-5.659917	-77.215943	94.001624
36491		0.554746	0.429454	-0.453281	0.549875	-5.710511	-77.214065	94.055910
36492		0.554637	0.429454	-0.453260	0.550002	-5.757028	-77.210670	94.117231
36493		0.554558	0.429432	-0.453290	0.550074	-5.806748	-77.210649	94.172693
36494		0.554510	0.429387	-0.453316	0.550136	-5.851306	-77.207815	94.219439
36495		0.554447	0.429383	-0.453338	0.550186	-5.884971	-77.208847	94.258156
36496		0.554398	0.429364	-0.453364	0.550228	-5.918842	-77.208938	94.294677
36497		0.554322	0.429367	-0.453387	0.550283	-5.955243	-77.210870	94.337497
36498		0.554267	0.429346	-0.453447	0.550306	-5.997946	-77.214165	94.380010
36499		0.554200	0.429339	-0.453508	0.550328	-6.039727	-77.218952	94.423047
36500		0.554121	0.429336	-0.453545	0.550380	-6.082316	-77.221608	94.470792
36501		0.554064	0.429312	-0.453588	0.550420	-6.124733	-77.222808	94.515001
36502		0.553960	0.429315	-0.453611	0.550504	-6.173914	-77.224340	94.573824
36503		0.553919	0.429292	-0.453668	0.550516	-6.210331	-77.227278	94.608765
36504		0.553852	0.429301	-0.453717	0.550536	-6.244158	-77.232542	94.645240
36505		0.553818	0.429295	-0.453786	0.550518	-6.272443	-77.238654	94.670146
36506		0.553786	0.429286	-0.453825	0.550525	-6.296046	-77.241418	94.693238
36507		0.553739	0.429299	-0.453837	0.550552	-6.313817	-77.243483	94.715377
36508		0.553649	0.429340	-0.453839	0.550609	-6.337637	-77.247264	94.749921
36509		0.553612	0.429358	-0.453865	0.550611	-6.350787	-77.251539	94.764854
36510		0.553549	0.429371	-0.453884	0.550648	-6.377184	-77.254309	94.796662
36511		0.553527	0.429371	-0.453917	0.550643	-6.391658	-77.257418	94.810241
36512		0.553503	0.429375	-0.453924	0.550659	-6.402554	-77.258247	94.823277
36513		0.553471	0.429370	-0.453948	0.550675	-6.422230	-77.259853	94.844010
36514		0.553483	0.429327	-0.453989	0.550662	-6.440590	-77.259385	94.856088
36515		0.553467	0.429292	-0.454072	0.550636	-6.474402	-77.264049	94.882528
36516		0.553415	0.429277	-0.454170	0.550620	-6.518845	-77.271757	94.922546
36517		0.553449	0.429196	-0.454270	0.550567	-6.551666	-77.273445	94.939955
36518		0.553478	0.429191	-0.454293	0.550523	-6.543921	-77.275604	94.926330
36519		0.553511	0.429184	-0.454304	0.550486	-6.533433	-77.276399	94.910793
36520		0.553435	0.429237	-0.454283	0.550537	-6.542672	-77.279322	94.931621
36521		0.553389	0.429269	-0.454302	0.550544	-6.553254	-77.284298	94.945991
36522		0.553314	0.429326	-0.454304	0.550573	-6.563942	-77.290041	94.965920
36523		0.553257	0.429337	-0.454325	0.550604	-6.588726	-77.292725	94.995135
36524		0.553267	0.429316	-0.454371	0.550573	-6.599496	-77.295196	94.999723
36525		0.553300	0.429198	-0.454468	0.550552	-6.648086	-77.292438	95.032817
36526		0.553341	0.429057	-0.454633	0.550484	-6.712002	-77.294183	95.072712
36527		0.553439	0.428880	-0.454802	0.550384	-6.765318	-77.292995	95.094744
36528		0.553568	0.428715	-0.454956	0.550256	-6.797593	-77.291908	95.093814
36529		0.553677	0.428604	-0.455021	0.550178	-6.803589	-77.287527	95.078788
36530		0.553823	0.428469	-0.455056	0.550108	-6.798005	-77.277720	95.050986
36531		0.554053	0.428322	-0.454962	0.550068	-6.740438	-77.254277	94.974761
36532		0.554342	0.428117	-0.454659	0.550187	-6.649671	-77.203309	94.879776
36533		0.554878	0.427654	-0.454184	0.550400	-6.530310	-77.108447	94.742320
36534		0.555755	0.426735	-0.453618	0.550694	-6.434237	-76.957324	94.591980
36535		0.557047	0.425372	-0.453169	0.550813	-6.353334	-76.773691	94.390380
36536		0.558528	0.423894	-0.452873	0.550696	-6.259992	-76.595632	94.136235
36537		0.560052	0.422531	-0.452665	0.550366	-6.117014	-76.440349	93.819249
36538		0.561709	0.421151	-0.452465	0.549900	-5.929786	-76.285523	93.441033
36539		0.563696	0.419582	-0.452174	0.549306	-5.670938	-76.104330	92.958862
36540		0.566036	0.417874	-0.451784	0.548522	-5.314638	-75.901319	92.345463
36541		0.568747	0.416087	-0.451389	0.547400	-4.847635	-75.692638	91.575982
36542		0.571790	0.414302	-0.450897	0.545987	-4.248927	-75.476226	90.644325
36543		0.575072	0.412601	-0.450259	0.544352	-3.524820	-75.253956	89.573606
36544		0.578531	0.411067	-0.449462	0.542504	-2.671831	-75.030963	88.370114
36545		0.582160	0.409707	-0.448473	0.540465	-1.691573	-74.802956	87.039372
36546		0.586000	0.408540	-0.447190	0.538257	-0.558969	-74.559051	85.562198
36547		0.590007	0.407637	-0.445564	0.535906	0.731868	-74.298195	83.943534
36548		0.594199	0.406907	-0.443610	0.533446	2.139313	-74.010215	82.219839
36549		0.598653	0.406297	-0.441397	0.530759	3.657747	-73.694816	80.378223
36550		0.603410	0.405750	-0.438860	0.527887	5.268525	-73.336629	78.437693
36551		0.608372	0.405373	-0.436009	0.524836	6.965402	-72.944189	76.416165
36552		0.613505	0.405111	-0.432891	0.521633	8.701819	-72.516022	74.357765
36553		0.618809	0.404946	-0.429624	0.518188	10.459796	-72.061046	72.267335
36554		0.624323	0.404773	-0.426168	0.514548	12.204598	-71.565229	70.175951
36555		0.630189	0.404423	-0.422588	0.510610	13.906375	-71.018968	68.085492
36556		0.636367	0.403903	-0.418918	0.506367	15.550267	-70.427346	66.010680
36557		0.642814	0.403365	-0.415038	0.501826	17.175677	-69.788458	63.930696
36558		0.649456	0.402777	-0.411031	0.497022	18.745848	-69.110692	61.881868
36559		0.656300	0.402076	-0.406909	0.491966	20.239040	-68.391778	59.881260
36560		0.663399	0.401142	-0.402715	0.486629	21.628573	-67.628579	57.940893
36561		0.670746	0.400049	-0.398369	0.481001	22.939466	-66.817772	56.043958
36562		0.678253	0.398990	-0.393788	0.475090	24.214797	-65.963844	54.168829
36563		0.685845	0.398106	-0.388909	0.468911	25.481764	-65.068963	52.305242
36564		0.693501	0.397286	-0.383757	0.462549	26.697585	-64.131704	50.494098
36565		0.701259	0.396444	-0.378265	0.456052	27.841848	-63.141061	48.754140
36566		0.709126	0.395562	-0.372428	0.449409	28.912687	-62.096234	47.085199
36567		0.717001	0.394816	-0.366131	0.442694	29.941987	-60.997427	45.482487
36568		0.724926	0.393886	-0.359656	0.435872	30.860707	-59.861598	43.974818
36569		0.732865	0.392965	-0.352987	0.428822	31.726667	-58.694315	42.511101
36570		0.740972	0.391996	-0.346019	0.421390	32.550925	-57.474057	41.063469
36571		0.748915	0.391354	-0.338751	0.413782	33.380547	-56.228637	39.640271
36572		0.756671	0.390881	-0.331301	0.406080	34.177111	-54.967825	38.269883
36573		0.764354	0.390400	-0.323521	0.398352	34.910091	-53.668539	36.977048
36574		0.772087	0.389707	-0.315495	0.390477	35.557460	-52.328075	35.750570
36575		0.779772	0.388917	-0.307249	0.382489	36.140804	-50.957652	34.582098
36576		0.787406	0.388008	-0.298881	0.374316	36.665424	-49.566182	33.454645
36577		0.794932	0.387083	-0.290295	0.366031	37.148308	-48.150398	32.370553
36578		0.802446	0.385962	-0.281588	0.357523	37.569514	-46.710506	31.319111
36579		0.809839	0.384689	-0.272806	0.348928	37.931887	-45.260692	30.312472
36580		0.817146	0.383166	-0.263966	0.340261	38.223417	-43.800607	29.353517
36581		0.824277	0.381510	-0.254945	0.331695	38.459269	-42.328459	28.458267
36582		0.831240	0.379682	-0.245853	0.323169	38.640437	-40.853546	27.611987
36583		0.837925	0.377893	-0.236667	0.314751	38.799385	-39.383085	26.809381
36584		0.844384	0.376081	-0.227413	0.306369	38.932876	-37.914604	26.039782
36585		0.850598	0.374235	-0.218071	0.298122	39.037778	-36.449690	25.314624
36586		0.856610	0.372276	-0.208698	0.289958	39.107275	-34.990064	24.625889
36587		0.862459	0.370142	-0.199245	0.281889	39.135378	-33.529043	23.975812
36588		0.868150	0.367750	-0.189829	0.273934	39.111957	-32.078320	23.363219
36589		0.873567	0.365252	-0.180581	0.266198	39.056891	-30.661081	22.787581
36590		0.878727	0.362631	-0.171538	0.258673	38.969971	-29.279920	22.244489
36591		0.883693	0.359803	-0.162621	0.251361	38.842231	-27.923674	21.737138
36592		0.888430	0.356913	-0.153749	0.244266	38.695480	-26.586876	21.261331
36593		0.892899	0.354062	-0.144948	0.237406	38.543669	-25.274854	20.813951
36594		0.897088	0.351251	-0.136358	0.230785	38.386609	-24.002561	20.389808
36595		0.901052	0.348365	-0.128030	0.224399	38.209968	-22.772201	19.988676
36596		0.904856	0.345296	-0.119968	0.218205	38.001900	-21.579947	19.606593
36597		0.908528	0.342028	-0.112178	0.212156	37.761909	-20.423705	19.236918
36598		0.912064	0.338578	-0.104628	0.206296	37.492241	-19.302080	18.884061
36599		0.915456	0.335034	-0.097252	0.200586	37.205770	-18.207923	18.542814
36600		0.918694	0.331386	-0.089994	0.195158	36.900195	-17.139519	18.229679
36601		0.921711	0.327792	-0.082899	0.190079	36.594304	-16.106911	17.947398
36602		0.924462	0.324436	-0.075899	0.185336	36.312234	-15.105182	17.693495
36603		0.926950	0.321406	-0.068911	0.180868	36.066517	-14.123813	17.462781
36604		0.929186	0.318666	-0.061981	0.176701	35.852103	-13.167602	17.258016
36605		0.931198	0.316177	-0.055222	0.172778	35.663989	-12.245603	17.070029
36606		0.933021	0.313891	-0.048646	0.169049	35.496594	-11.355826	16.894041
36607		0.934688	0.311780	-0.042290	0.165417	35.347064	-10.498086	16.718642
36608		0.936237	0.309759	-0.036214	0.161861	35.204403	-9.676482	16.540623
36609		0.937720	0.307702	-0.030397	0.158358	35.053591	-8.885576	16.359581
36610		0.939178	0.305499	-0.024897	0.154902	34.880679	-8.129501	16.173580
36611		0.940626	0.303143	-0.019769	0.151450	34.684361	-7.412471	15.975715
36612		0.942046	0.300663	-0.014982	0.148076	34.467879	-6.734537	15.774703
36613		0.943429	0.298127	-0.010467	0.144750	34.240376	-6.088053	15.568857
36614		0.944765	0.295555	-0.006255	0.141516	34.003593	-5.478408	15.361707
36615		0.946035	0.293049	-0.002356	0.138328	33.769563	-4.906588	15.147335
36616		0.947219	0.290651	0.001293	0.135266	33.543849	-4.369046	14.936833
36617		0.948333	0.288317	0.004672	0.132349	33.320933	-3.867880	14.731855
36618		0.949468	0.285788	0.007535	0.129536	33.066995	-3.424394	14.520949
36619		0.950691	0.282894	0.009752	0.126735	32.760408	-3.047433	14.290460
36620		0.951873	0.280041	0.011626	0.124018	32.453216	-2.712701	14.056699
36621		0.952864	0.277651	0.013674	0.121543	32.202270	-2.374672	13.852757
36622		0.953599	0.275936	0.016076	0.119374	32.034630	-2.018285	13.691218
36623		0.954076	0.274898	0.018721	0.117556	31.949385	-1.656661	13.574312
36624		0.954318	0.274549	0.021290	0.115958	31.944171	-1.320091	13.478073
36625		0.954340	0.274889	0.023510	0.114537	32.015427	-1.036869	13.389952
36626		0.954184	0.275769	0.025240	0.113350	32.143689	-0.822171	13.312261
36627		0.953898	0.276975	0.026599	0.112497	32.305432	-0.663097	13.260090
36628		0.953502	0.278436	0.027676	0.111988	32.493374	-0.549118	13.237252
36629		0.953069	0.279921	0.028434	0.111782	32.679811	-0.480183	13.238112
36630		0.952647	0.281283	0.028746	0.111878	32.845595	-0.468101	13.258232
36631		0.952263	0.282465	0.028558	0.112219	32.983282	-0.516106	13.289258
36632		0.951908	0.283488	0.027895	0.112814	33.095427	-0.622055	13.332809
36633		0.951555	0.284426	0.026896	0.113671	33.192857	-0.772180	13.394207
36634		0.951179	0.285320	0.025644	0.114859	33.281199	-0.960268	13.483776
36635		0.950771	0.286213	0.024081	0.116345	33.364837	-1.192318	13.595721
36636		0.950353	0.287033	0.022141	0.118117	33.434184	-1.474053	13.726899
36637		0.949914	0.287825	0.019828	0.120110	33.494375	-1.803479	13.870122
36638		0.949417	0.288711	0.017190	0.122300	33.560591	-2.176461	14.024057
36639		0.948823	0.289814	0.014337	0.124652	33.648758	-2.581718	14.188003
36640		0.948092	0.291274	0.011275	0.127098	33.775912	-3.018696	14.354116
36641		0.947229	0.293109	0.007980	0.129540	33.944066	-3.486955	14.510083
36642		0.946252	0.295192	0.004445	0.132096	34.137889	-3.989638	14.668731
36643		0.945176	0.297433	0.000537	0.134816	34.344657	-4.541541	14.831209
36644		0.944066	0.299538	-0.003853	0.137847	34.527206	-5.155365	15.011515
36645		0.942985	0.301290	-0.008651	0.141171	34.660404	-5.818742	15.211509
36646		0.941929	0.302671	-0.013700	0.144822	34.743332	-6.515688	15.441247
36647		0.940817	0.304008	-0.018982	0.148604	34.816171	-7.242630	15.678074
36648		0.939586	0.305540	-0.024544	0.152383	34.907761	-8.003943	15.903884
36649		0.938182	0.307418	-0.030429	0.156148	35.036200	-8.806641	16.114233
36650		0.936599	0.309591	-0.036641	0.159981	35.195097	-9.653705	16.317993
36651		0.934830	0.311933	-0.043123	0.164107	35.368336	-10.544928	16.542699
36652		0.932920	0.314186	-0.049894	0.168697	35.522203	-11.484266	16.809982
36653		0.930930	0.316181	-0.056902	0.173667	35.636816	-12.460300	17.115130
36654		0.928813	0.318072	-0.064108	0.178963	35.730711	-13.469948	17.452399
36655		0.926485	0.320122	-0.071540	0.184469	35.836531	-14.517026	17.804820
36656		0.923859	0.322560	-0.079342	0.190116	35.981803	-15.619588	18.155927
36657		0.920953	0.325341	-0.087426	0.195848	36.163205	-16.766107	18.501892
36658		0.917860	0.328180	-0.095694	0.201679	36.346494	-17.941208	18.852302
36659		0.914672	0.330824	-0.104113	0.207582	36.500877	-19.135621	19.210123
36660		0.911442	0.333000	-0.112728	0.213724	36.587743	-20.354654	19.600764
36661		0.908114	0.334721	-0.121667	0.220202	36.604004	-21.616166	20.034238
36662		0.904600	0.336104	-0.130898	0.227151	36.559552	-22.924273	20.528043
36663		0.900935	0.337138	-0.140315	0.234450	36.453090	-24.262171	21.075556
36664		0.897211	0.337803	-0.149722	0.241839	36.287112	-25.597809	21.655706
36665		0.893480	0.338361	-0.158969	0.248864	36.106844	-26.903077	22.212766
36666		0.889727	0.338930	-0.167897	0.255582	35.927812	-28.165153	22.754640
36667		0.885894	0.339553	-0.176695	0.262057	35.753548	-29.408319	23.281259
36668		0.881857	0.340182	-0.185727	0.268533	35.567432	-30.681776	23.814394
36669		0.877563	0.340691	-0.195217	0.275142	35.345385	-32.012722	24.370827
36670		0.873056	0.340682	-0.205200	0.282137	35.021232	-33.404052	25.001707
36671		0.868379	0.340051	-0.215511	0.289548	34.574298	-34.834832	25.727656
36672		0.863567	0.338994	-0.225821	0.297220	34.033051	-36.265951	26.537728
36673		0.858662	0.337942	-0.235826	0.304765	33.471536	-37.660056	27.373198
36674		0.853636	0.337471	-0.245282	0.311857	32.988943	-38.994758	28.167017
36675		0.848517	0.337639	-0.254216	0.318425	32.602002	-40.273541	28.898484
36676		0.843296	0.337940	-0.263016	0.324763	32.223233	-41.536873	29.621618
36677		0.838027	0.337907	-0.271985	0.330990	31.773373	-42.808389	30.373254
36678		0.832661	0.337470	-0.281156	0.337255	31.228870	-44.094336	31.184148
36679		0.827191	0.336814	-0.290446	0.343443	30.619445	-45.386496	32.034680
36680		0.821594	0.335957	-0.299833	0.349595	29.941095	-46.683864	32.935534
36681		0.815986	0.334762	-0.309157	0.355700	29.170266	-47.960734	33.901743
36682		0.810398	0.333278	-0.318207	0.361836	28.308484	-49.194523	34.949841
36683		0.804809	0.331936	-0.326789	0.367845	27.436650	-50.372481	36.028667
36684		0.799275	0.330821	-0.334847	0.373625	26.580151	-51.487689	37.111776
36685		0.793765	0.329916	-0.342541	0.379154	25.737193	-52.558361	38.192240
36686		0.788234	0.329213	-0.349838	0.384603	24.895564	-53.585297	39.297580
36687		0.782757	0.328611	-0.356715	0.389948	24.043201	-54.560283	40.428426
36688		0.777380	0.327964	-0.363367	0.395076	23.160110	-55.496255	41.575350
36689		0.771919	0.327457	-0.369759	0.400239	22.254877	-56.405025	42.771334
36690		0.766431	0.327011	-0.375977	0.405325	21.320248	-57.289614	44.003223
36691		0.760854	0.326658	-0.382160	0.410304	20.356466	-58.167497	45.267595
36692		0.755072	0.326568	-0.388281	0.415281	19.380412	-59.047595	46.573537
36693		0.749085	0.326745	-0.394245	0.420333	18.386410	-59.920416	47.936590
36694		0.742888	0.327243	-0.400106	0.425377	17.387760	-60.793953	49.339135
36695		0.736352	0.328311	-0.405726	0.430563	16.417605	-61.670278	50.787955
36696		0.729495	0.329863	-0.411127	0.435893	15.455623	-62.548256	52.295254
36697		0.722303	0.331940	-0.416285	0.441363	14.507842	-63.428829	53.859005
36698		0.714830	0.334474	-0.421260	0.446861	13.569682	-64.314428	55.466068
36699		0.707192	0.337280	-0.426054	0.452327	12.612160	-65.192879	57.122821
36700		0.699520	0.340226	-0.430590	0.457722	11.624514	-66.045903	58.825791
36701		0.691634	0.343533	-0.434706	0.463312	10.620915	-66.873656	60.610289
36702		0.683671	0.346996	-0.438498	0.468943	9.575936	-67.671306	62.466541
36703		0.675708	0.350533	-0.441838	0.474683	8.481144	-68.417944	64.404544
36704		0.667789	0.354035	-0.444874	0.480421	7.316687	-69.121101	66.420419
36705		0.659921	0.357388	-0.447635	0.486211	6.044868	-69.774545	68.546453
36706		0.652457	0.360220	-0.450397	0.491614	4.647300	-70.374388	70.717088
36707		0.645545	0.362460	-0.453133	0.496554	3.147610	-70.908361	72.893405
36708		0.639341	0.364007	-0.456044	0.500766	1.563153	-71.387560	75.016880
36709		0.633830	0.364873	-0.459358	0.504100	-0.108638	-71.837317	77.070869
36710		0.629121	0.364818	-0.463225	0.506495	-1.920108	-72.251953	79.075600
36711		0.624964	0.364184	-0.467449	0.508215	-3.828902	-72.639116	81.050486
36712		0.621309	0.363120	-0.471856	0.509383	-5.786986	-72.993409	82.976787
36713		0.618024	0.361865	-0.476299	0.510136	-7.743932	-73.321349	84.842410
36714		0.614896	0.360590	-0.480658	0.510730	-9.704467	-73.625187	86.696541
36715		0.611875	0.359523	-0.484651	0.511337	-11.579616	-73.897355	88.492792
36716		0.608915	0.358729	-0.488200	0.512051	-13.346719	-74.137471	90.224755
36717		0.606012	0.358193	-0.491510	0.512705	-15.026933	-74.368696	91.891879
36718		0.603325	0.357629	-0.494630	0.513266	-16.648778	-74.571301	93.491498
36719		0.600880	0.357219	-0.497505	0.513639	-18.130769	-74.762875	94.949267
36720		0.598672	0.356981	-0.500141	0.513824	-19.465772	-74.948342	96.259193
36721		0.596666	0.356848	-0.502576	0.513874	-20.686747	-75.125372	97.453050
36722		0.594851	0.356753	-0.504871	0.513794	-21.823026	-75.294155	98.553727
36723		0.593276	0.356673	-0.506970	0.513604	-22.847256	-75.448841	99.534127
36724		0.592034	0.356582	-0.508887	0.513205	-23.726875	-75.593678	100.348202
36725		0.590965	0.356681	-0.510461	0.512804	-24.434419	-75.729958	101.010812
36726		0.590128	0.356816	-0.511826	0.512314	-25.008877	-75.857076	101.535762
36727		0.589550	0.356845	-0.513048	0.511736	-25.485399	-75.966989	101.944526
36728		0.589307	0.356753	-0.514081	0.511044	-25.823513	-76.056829	102.192481
36729		0.589313	0.356636	-0.515000	0.510193	-26.045661	-76.143340	102.305845
36730		0.589620	0.356401	-0.515864	0.509128	-26.163975	-76.224066	102.281724
36731		0.590077	0.356139	-0.516640	0.507993	-26.208489	-76.299595	102.174389
36732		0.590815	0.355785	-0.517354	0.506654	-26.145675	-76.371058	101.929784
36733		0.591706	0.355433	-0.517947	0.505254	-25.989712	-76.437119	101.586640
36734		0.592825	0.354985	-0.518441	0.503749	-25.739036	-76.491685	101.129355
36735		0.594100	0.354461	-0.518805	0.502239	-25.411947	-76.530063	100.589123
36736		0.595407	0.354020	-0.519035	0.500762	-25.016774	-76.565047	99.993497
36737		0.596652	0.353852	-0.518981	0.499454	-24.511426	-76.597901	99.333480
36738		0.597931	0.353838	-0.518669	0.498257	-23.892694	-76.620934	98.588372
36739		0.599138	0.353960	-0.518208	0.497199	-23.234771	-76.638851	97.832780
36740		0.600460	0.354008	-0.517763	0.496031	-22.547821	-76.653226	97.029830
36741		0.601823	0.354136	-0.517250	0.494823	-21.803017	-76.669121	96.172909
36742		0.603281	0.354149	-0.516788	0.493519	-21.057778	-76.679168	95.294677
36743		0.604804	0.354119	-0.516374	0.492107	-20.302004	-76.690150	94.390414
36744		0.606329	0.354044	-0.516060	0.490612	-19.572844	-76.705461	93.499582
36745		0.607855	0.353936	-0.515799	0.489074	-18.858543	-76.721055	92.615963
36746		0.609376	0.353920	-0.515431	0.487578	-18.096632	-76.732639	91.698880
36747		0.610850	0.354008	-0.514978	0.486147	-17.305209	-76.742153	90.769931
36748		0.612183	0.354223	-0.514436	0.484886	-16.521664	-76.748356	89.879317
36749		0.613380	0.354525	-0.513870	0.483750	-15.765443	-76.754797	89.037879
36750		0.614392	0.354898	-0.513330	0.482764	-15.073613	-76.764331	88.282845
36751		0.615265	0.355256	-0.512936	0.481808	-14.467943	-76.783598	87.614703
36752		0.616033	0.355621	-0.512664	0.480846	-13.919821	-76.813741	87.003346
36753		0.616732	0.355985	-0.512496	0.479858	-13.411933	-76.853162	86.428859
36754		0.617408	0.356337	-0.512445	0.478782	-12.926414	-76.903566	85.865557
36755		0.618061	0.356689	-0.512478	0.477640	-12.454002	-76.962652	85.308059
36756		0.618703	0.357034	-0.512545	0.476478	-11.987188	-77.023822	84.753383
36757		0.619317	0.357381	-0.512619	0.475339	-11.528986	-77.084633	84.209833
36758		0.619906	0.357591	-0.512810	0.474206	-11.144937	-77.143751	83.727476
36759		0.620449	0.357750	-0.513039	0.473127	-10.805651	-77.200530	83.290493
36760		0.620926	0.357971	-0.513265	0.472088	-10.468881	-77.261416	82.866043
36761		0.621357	0.358159	-0.513536	0.471082	-10.169276	-77.323079	82.478831
36762		0.621760	0.358230	-0.513954	0.470039	-9.941087	-77.389501	82.147166
36763		0.622148	0.358196	-0.514504	0.468949	-9.771958	-77.460514	81.858921
36764		0.622582	0.358062	-0.515124	0.467794	-9.624137	-77.530674	81.575598
36765		0.622967	0.357939	-0.515675	0.466767	-9.491651	-77.592705	81.322500
36766		0.623384	0.357742	-0.516267	0.465706	-9.375798	-77.652776	81.075316
36767		0.623825	0.357374	-0.516921	0.464670	-9.327423	-77.703680	80.881921
36768		0.624306	0.356906	-0.517629	0.463595	-9.305694	-77.751719	80.701538
36769		0.624788	0.356396	-0.518333	0.462551	-9.300786	-77.795266	80.537472
36770		0.625269	0.355856	-0.519014	0.461551	-9.308619	-77.833249	80.388124
36771		0.625767	0.355286	-0.519660	0.460588	-9.319928	-77.864391	80.243600
36772		0.626281	0.354636	-0.520337	0.459625	-9.360701	-77.891754	80.121020
36773		0.626851	0.353913	-0.521025	0.458624	-9.403202	-77.914530	79.989649
36774		0.627432	0.353133	-0.521686	0.457679	-9.466509	-77.928680	79.879666
36775		0.628010	0.352359	-0.522297	0.456785	-9.525762	-77.937392	79.772073
36776		0.628591	0.351590	-0.522817	0.455983	-9.578520	-77.935810	79.668492
36777		0.629164	0.350832	-0.523234	0.455298	-9.627658	-77.922613	79.575060
36778		0.629718	0.350105	-0.523582	0.454691	-9.670266	-77.903734	79.486540
36779		0.630248	0.349422	-0.523842	0.454181	-9.703322	-77.878190	79.403017
36780		0.630744	0.348784	-0.524043	0.453751	-9.732734	-77.849103	79.328535
36781		0.631220	0.348162	-0.524199	0.453386	-9.764813	-77.815912	79.265208
36782		0.631656	0.347499	-0.524483	0.452961	-9.842043	-77.793467	79.236086
36783		0.632030	0.346806	-0.524889	0.452498	-9.969709	-77.782137	79.250104
36784		0.632393	0.346184	-0.525253	0.452046	-10.068871	-77.772482	79.243606
36785		0.632730	0.345644	-0.525604	0.451579	-10.141835	-77.769055	79.217186
36786		0.633082	0.345168	-0.525854	0.451157	-10.173472	-77.760109	79.160757
36787		0.633454	0.344737	-0.526022	0.450770	-10.170963	-77.745736	79.078398
36788		0.633794	0.344430	-0.526103	0.450432	-10.124873	-77.732432	78.969541
36789		0.634066	0.344226	-0.526121	0.450184	-10.067211	-77.720188	78.868124
36790		0.634316	0.344099	-0.526059	0.450001	-9.984241	-77.705273	78.755694
36791		0.634526	0.344187	-0.525850	0.449882	-9.818612	-77.692588	78.587846
36792		0.634688	0.344456	-0.525540	0.449810	-9.591931	-77.684331	78.381345
36793		0.634800	0.344822	-0.525224	0.449741	-9.347177	-77.683732	78.165896
36794		0.634852	0.345254	-0.524878	0.449739	-9.103562	-77.684677	77.964690
36795		0.634902	0.345700	-0.524524	0.449739	-8.854056	-77.685683	77.759163
36796		0.634962	0.346095	-0.524193	0.449737	-8.624310	-77.684671	77.568327
36797		0.635011	0.346511	-0.523915	0.449673	-8.390231	-77.691846	77.368482
36798		0.635059	0.346928	-0.523620	0.449625	-8.154898	-77.697140	77.169324
36799		0.635137	0.347357	-0.523320	0.449533	-7.896768	-77.703122	76.944087
36800		0.635210	0.347785	-0.522981	0.449493	-7.641949	-77.703893	76.727558
36801		0.635248	0.348202	-0.522626	0.449530	-7.413178	-77.700883	76.543951
36802		0.635260	0.348593	-0.522263	0.449632	-7.212061	-77.693888	76.392168
36803		0.635243	0.349031	-0.521846	0.449800	-7.005170	-77.684221	76.245986
36804		0.635180	0.349488	-0.521388	0.450066	-6.816129	-77.670409	76.129554
36805		0.635030	0.349958	-0.520995	0.450367	-6.669191	-77.664702	76.059489
36806		0.634808	0.350365	-0.520697	0.450708	-6.594154	-77.663539	76.058683
36807		0.634574	0.350760	-0.520378	0.451099	-6.533009	-77.658577	76.075861
36808		0.634324	0.351152	-0.520084	0.451484	-6.481389	-77.656237	76.101542
36809		0.634077	0.351478	-0.519860	0.451836	-6.460967	-77.656320	76.148376
36810		0.633857	0.351764	-0.519656	0.452156	-6.444236	-77.655423	76.192058
36811		0.633668	0.352080	-0.519387	0.452485	-6.395848	-77.649816	76.208069
36812		0.633487	0.352396	-0.519100	0.452821	-6.342271	-77.642246	76.219885
36813		0.633324	0.352692	-0.518791	0.453173	-6.289060	-77.630340	76.232022
36814		0.633144	0.352984	-0.518455	0.453581	-6.248170	-77.614495	76.262019
36815		0.632936	0.353311	-0.518136	0.453981	-6.204444	-77.603754	76.291346
36816		0.632707	0.353622	-0.517828	0.454409	-6.180573	-77.592638	76.342029
36817		0.632485	0.353885	-0.517582	0.454793	-6.176147	-77.584746	76.402630
36818		0.632272	0.354028	-0.517459	0.455119	-6.226744	-77.580383	76.500252
36819		0.632127	0.354018	-0.517402	0.455392	-6.314157	-77.570493	76.614653
36820		0.632023	0.353981	-0.517325	0.455652	-6.392535	-77.556082	76.716357
36821		0.631941	0.353891	-0.517307	0.455855	-6.484242	-77.544129	76.820364
36822		0.631909	0.353752	-0.517287	0.456030	-6.572269	-77.527815	76.913234
36823		0.631853	0.353549	-0.517316	0.456234	-6.705574	-77.510856	77.047862
36824		0.631828	0.353248	-0.517369	0.456441	-6.869731	-77.487925	77.204391
36825		0.631832	0.352879	-0.517456	0.456622	-7.050075	-77.462911	77.367958
36826		0.631896	0.352437	-0.517547	0.456773	-7.232993	-77.432007	77.524169
36827		0.632020	0.351978	-0.517634	0.456856	-7.388689	-77.399943	77.644932
36828		0.632169	0.351458	-0.517810	0.456850	-7.560202	-77.373226	77.766148
36829		0.632345	0.350956	-0.518019	0.456756	-7.707786	-77.352585	77.855899
36830		0.632560	0.350510	-0.518157	0.456644	-7.805370	-77.329502	77.899776
36831		0.632812	0.350139	-0.518201	0.456530	-7.845846	-77.302854	77.893992
36832		0.633006	0.349897	-0.518147	0.456508	-7.855288	-77.275767	77.879264
36833		0.633151	0.349819	-0.517909	0.456637	-7.811786	-77.241405	77.843546
36834		0.633214	0.349883	-0.517497	0.456967	-7.743689	-77.198283	77.818024
36835		0.633216	0.350052	-0.516991	0.457407	-7.658500	-77.152843	77.797127
36836		0.633154	0.350300	-0.516463	0.457899	-7.570752	-77.111331	77.786429
36837		0.633051	0.350487	-0.516106	0.458301	-7.535208	-77.084278	77.811782
36838		0.632973	0.350578	-0.515873	0.458601	-7.532404	-77.063464	77.849593
36839		0.633008	0.350605	-0.515654	0.458779	-7.499417	-77.039866	77.838954
36840		0.633086	0.350532	-0.515542	0.458853	-7.491295	-77.020344	77.832477
36841		0.633219	0.350371	-0.515516	0.458822	-7.495734	-77.003705	77.819030
36842		0.633363	0.350186	-0.515521	0.458759	-7.505707	-76.988595	77.805505
36843		0.633473	0.350021	-0.515544	0.458707	-7.524780	-76.977094	77.803801
36844		0.633541	0.349929	-0.515507	0.458725	-7.531384	-76.964790	77.804097
36845		0.633541	0.349968	-0.515371	0.458848	-7.512312	-76.951899	77.802223
36846		0.633465	0.350140	-0.515138	0.459083	-7.470153	-76.939028	77.801693
36847		0.633358	0.350365	-0.514872	0.459358	-7.419095	-76.926742	77.801482
36848		0.633247	0.350655	-0.514551	0.459648	-7.339117	-76.914087	77.780436
36849		0.633163	0.350974	-0.514189	0.459926	-7.230996	-76.899694	77.733140
36850		0.633155	0.351272	-0.513812	0.460129	-7.092425	-76.882635	77.646016
36851		0.633195	0.351492	-0.513505	0.460250	-6.965817	-76.867159	77.554748
36852		0.633268	0.351633	-0.513289	0.460283	-6.859644	-76.855666	77.466920
36853		0.633371	0.351725	-0.513194	0.460177	-6.761448	-76.854551	77.367333
36854		0.633486	0.351755	-0.513111	0.460088	-6.685758	-76.849024	77.286180
36855		0.633613	0.351738	-0.513041	0.460005	-6.626734	-76.840654	77.217844
36856		0.633731	0.351680	-0.512972	0.459963	-6.591005	-76.828453	77.173128
36857		0.633814	0.351580	-0.512977	0.459920	-6.594582	-76.820605	77.163066
36858		0.633855	0.351491	-0.513026	0.459876	-6.614767	-76.818603	77.170234
36859		0.633841	0.351434	-0.513079	0.459879	-6.649128	-76.819405	77.199055
36860		0.633768	0.351434	-0.513182	0.459867	-6.688405	-76.830750	77.236174
36861		0.633650	0.351484	-0.513273	0.459888	-6.727159	-76.845009	77.280865
36862		0.633573	0.351514	-0.513341	0.459896	-6.754261	-76.855019	77.310983
36863		0.633496	0.351606	-0.513417	0.459847	-6.752185	-76.871936	77.311737
36864		0.633438	0.351698	-0.513491	0.459773	-6.739371	-76.889065	77.299398
36865		0.633424	0.351733	-0.513569	0.459679	-6.730601	-76.901649	77.283702
36866		0.633435	0.351719	-0.513637	0.459598	-6.731716	-76.908760	77.274827
36867		0.633438	0.351703	-0.513696	0.459540	-6.737963	-76.914472	77.273196
36868		0.633392	0.351700	-0.513848	0.459437	-6.764847	-76.931927	77.288003
36869		0.633370	0.351672	-0.514117	0.459187	-6.790434	-76.961591	77.283419
36870		0.633351	0.351608	-0.514448	0.458891	-6.832062	-76.995564	77.286487
36871		0.633360	0.351489	-0.514854	0.458515	-6.885150	-77.033564	77.287001
36872		0.633420	0.351305	-0.515242	0.458137	-6.941644	-77.064044	77.285009
36873		0.633485	0.351101	-0.515608	0.457791	-7.004798	-77.090030	77.291213
36874		0.633512	0.350963	-0.515905	0.457525	-7.056996	-77.113353	77.301343
36875		0.633481	0.350949	-0.516120	0.457337	-7.081174	-77.137685	77.303371
36876		0.633394	0.351029	-0.516293	0.457200	-7.089982	-77.165365	77.304323
36877		0.633332	0.351096	-0.516455	0.457052	-7.091756	-77.190639	77.296028
36878		0.633283	0.351132	-0.516685	0.456832	-7.101382	-77.221471	77.284887
36879		0.633300	0.351048	-0.517035	0.456478	-7.133352	-77.256410	77.270500
36880		0.633395	0.350837	-0.517409	0.456084	-7.183597	-77.283315	77.258344
36881		0.633504	0.350504	-0.517794	0.455752	-7.285529	-77.299857	77.292804
36882		0.633589	0.350083	-0.518189	0.455508	-7.443317	-77.308842	77.383736
36883		0.633652	0.349676	-0.518576	0.455292	-7.606309	-77.317792	77.484065
36884		0.633671	0.349348	-0.518981	0.455056	-7.756297	-77.335907	77.576472
36885		0.633653	0.349066	-0.519398	0.454822	-7.904087	-77.359269	77.671208
36886		0.633668	0.348798	-0.519790	0.454558	-8.026971	-77.381527	77.739546
36887		0.633675	0.348492	-0.520211	0.454302	-8.173166	-77.403492	77.828195
36888		0.633629	0.348204	-0.520576	0.454169	-8.340622	-77.419367	77.952640
36889		0.633513	0.347941	-0.520868	0.454197	-8.534353	-77.427366	78.122469
36890		0.633305	0.347738	-0.521095	0.454381	-8.749898	-77.431407	78.335860
36891		0.632996	0.347617	-0.521290	0.454682	-8.983329	-77.437409	78.586609
36892		0.632664	0.347539	-0.521504	0.454958	-9.208391	-77.449437	78.830522
36893		0.632306	0.347480	-0.521765	0.455201	-9.440571	-77.468460	79.079438
36894		0.632025	0.347341	-0.522094	0.455320	-9.669278	-77.489304	79.304581
36895		0.631816	0.347092	-0.522535	0.455294	-9.912597	-77.514381	79.518685
36896		0.631638	0.346769	-0.523007	0.455246	-10.175473	-77.536105	79.743079
36897		0.631462	0.346342	-0.523552	0.455188	-10.488362	-77.556192	80.006388
36898		0.631301	0.345850	-0.524109	0.455144	-10.824423	-77.571376	80.288046
36899		0.631079	0.345379	-0.524645	0.455193	-11.184881	-77.584092	80.605695
36900		0.630762	0.344991	-0.525145	0.455350	-11.559247	-77.598310	80.956059
36901		0.630422	0.344656	-0.525594	0.455556	-11.920710	-77.610704	81.303941
36902		0.630054	0.344403	-0.526005	0.455783	-12.259279	-77.625650	81.638709
36903		0.629645	0.344214	-0.526393	0.456043	-12.591046	-77.643031	81.976157
36904		0.629234	0.344072	-0.526720	0.456339	-12.900345	-77.657470	82.299713
36905		0.628784	0.344022	-0.526989	0.456687	-13.187790	-77.672844	82.615501
36906		0.628273	0.344031	-0.527265	0.457064	-13.483262	-77.693369	82.947814
36907		0.627743	0.344062	-0.527523	0.457471	-13.779607	-77.713156	83.286120
36908		0.627183	0.344120	-0.527831	0.457840	-14.084209	-77.740811	83.630942
36909		0.626605	0.344158	-0.528193	0.458185	-14.412560	-77.772089	83.994998
36910		0.626098	0.344152	-0.528542	0.458480	-14.721531	-77.798904	84.330665
36911		0.625621	0.344040	-0.528966	0.458726	-15.066005	-77.824210	84.686539
36912		0.625135	0.343928	-0.529385	0.458990	-15.417223	-77.848023	85.050995
36913		0.624638	0.343863	-0.529732	0.459315	-15.749334	-77.867434	85.407556
36914		0.624110	0.343883	-0.530011	0.459695	-16.057009	-77.886262	85.753534
36915		0.623543	0.343950	-0.530262	0.460124	-16.365222	-77.905218	86.109629
36916		0.622945	0.344077	-0.530440	0.460634	-16.659282	-77.920267	86.465855
36917		0.622314	0.344216	-0.530638	0.461155	-16.969309	-77.937632	86.840258
36918		0.621701	0.344308	-0.530900	0.461611	-17.295665	-77.958021	87.219464
36919		0.621108	0.344402	-0.531154	0.462047	-17.610024	-77.978139	87.585075
36920		0.620504	0.344508	-0.531409	0.462487	-17.926740	-77.998804	87.954579
36921		0.619887	0.344603	-0.531725	0.462880	-18.262563	-78.025018	88.337012
36922		0.619283	0.344647	-0.532113	0.463209	-18.621219	-78.054341	88.730670
36923		0.618717	0.344648	-0.532556	0.463456	-18.983992	-78.086599	89.115738
36924		0.618167	0.344659	-0.533038	0.463627	-19.340383	-78.125146	89.487444
36925		0.617637	0.344586	-0.533630	0.463707	-19.735295	-78.168036	89.879941
36926		0.617169	0.344414	-0.534238	0.463757	-20.139708	-78.203451	90.269573
36927		0.616782	0.344161	-0.534867	0.463735	-20.536363	-78.234986	90.636655
36928		0.616472	0.343805	-0.535616	0.463548	-20.949222	-78.272058	90.992759
36929		0.616240	0.343331	-0.536482	0.463205	-21.382485	-78.312945	91.341868
36930		0.616111	0.342776	-0.537365	0.462764	-21.795047	-78.350766	91.652710
36931		0.616060	0.342175	-0.538262	0.462234	-22.185834	-78.388025	91.928576
36932		0.616043	0.341506	-0.539223	0.461632	-22.594407	-78.426588	92.208225
36933		0.616082	0.340741	-0.540310	0.460873	-23.028994	-78.471859	92.488602
36934		0.616143	0.339786	-0.541745	0.459811	-23.579194	-78.538654	92.834400
36935		0.616318	0.338597	-0.543532	0.458341	-24.213733	-78.626769	93.199988
36936		0.616706	0.337283	-0.545456	0.456499	-24.801307	-78.728263	93.469166
36937		0.617394	0.336014	-0.547199	0.454415	-25.172889	-78.829223	93.503663
36938		0.618429	0.334969	-0.548454	0.452260	-25.174512	-78.915995	93.185109
36939		0.619633	0.334126	-0.549279	0.450229	-24.923505	-78.982972	92.647737
36940		0.620931	0.333396	-0.549717	0.448445	-24.505393	-79.019576	91.980903
36941		0.622178	0.332735	-0.549875	0.447011	-24.043073	-79.025882	91.313303
36942		0.623304	0.332261	-0.549798	0.445889	-23.543923	-79.017472	90.658701
36943		0.624243	0.331944	-0.549577	0.445084	-23.074376	-78.999127	90.080769
36944		0.624997	0.331608	-0.549339	0.444569	-22.723971	-78.966610	89.649373
36945		0.625642	0.331180	-0.549096	0.444281	-22.480653	-78.916712	89.339455
36946		0.626198	0.330562	-0.549043	0.444023	-22.395437	-78.864628	89.172063
36947		0.626739	0.329647	-0.549263	0.443669	-22.476336	-78.812218	89.132673
36948		0.627459	0.328456	-0.549613	0.443100	-22.578294	-78.753326	89.066992
36949		0.628333	0.327016	-0.550102	0.442319	-22.705762	-78.691375	88.982360
36950		0.629286	0.325410	-0.550740	0.441352	-22.868758	-78.633932	88.899092
36951		0.630257	0.323829	-0.551423	0.440278	-23.015077	-78.586596	88.790691
36952		0.631188	0.322458	-0.551950	0.439288	-23.078390	-78.542455	88.628145
36953		0.632096	0.321265	-0.552316	0.438395	-23.064603	-78.497427	88.415314
36954		0.633025	0.320305	-0.552419	0.437628	-22.915567	-78.446520	88.102557
36955		0.633983	0.319504	-0.552321	0.436948	-22.664222	-78.389473	87.711752
36956		0.635022	0.318825	-0.552066	0.436257	-22.302549	-78.329735	87.221692
36957		0.636214	0.318313	-0.551599	0.435484	-21.765434	-78.268536	86.564590
36958		0.637584	0.317900	-0.550947	0.434608	-21.072183	-78.201657	85.751356
36959		0.639132	0.317528	-0.550126	0.433644	-20.251098	-78.123981	84.806624
36960		0.640905	0.317214	-0.549087	0.432574	-19.268498	-78.031476	83.696807
36961		0.642903	0.316866	-0.547912	0.431352	-18.174622	-77.923586	82.458871
36962		0.645158	0.316483	-0.546563	0.429976	-16.956419	-77.795221	81.080075
36963		0.647758	0.316257	-0.544822	0.428439	-15.478630	-77.639291	79.443297
36964		0.650775	0.316151	-0.542774	0.426541	-13.734536	-77.461314	77.518873
36965		0.654260	0.315851	-0.540626	0.424153	-11.853636	-77.254087	75.394312
36966		0.658286	0.315319	-0.538291	0.421280	-9.830124	-77.000804	73.062084
36967		0.662829	0.314755	-0.535644	0.417938	-7.612132	-76.699600	70.491661
36968		0.667887	0.314197	-0.532552	0.414241	-5.223282	-76.330671	67.722916
36969		0.673422	0.313644	-0.528917	0.410338	-2.734172	-75.875741	64.842207
36970		0.679327	0.313363	-0.524567	0.406384	-0.135352	-75.329050	61.881464
36971		0.685473	0.313488	-0.519387	0.402603	2.508208	-74.681902	58.940816
36972		0.691812	0.314104	-0.513323	0.399041	5.167096	-73.930661	56.063178
36973		0.698277	0.315225	-0.506482	0.395624	7.798909	-73.087541	53.285233
36974		0.704875	0.316941	-0.498869	0.392210	10.432272	-72.156332	50.574235
36975		0.711539	0.319318	-0.490382	0.388940	13.035295	-71.127807	47.984021
36976		0.718594	0.321516	-0.481276	0.385517	15.416232	-69.981803	45.601821
36977		0.725817	0.324163	-0.471525	0.381801	17.752981	-68.750855	43.294954
36978		0.733063	0.327573	-0.460856	0.378056	20.077183	-67.421560	41.090583
36979		0.740319	0.331379	-0.449581	0.374155	22.295281	-66.013527	39.035088
36980		0.747743	0.335239	-0.437824	0.369872	24.365480	-64.522025	37.118267
36981		0.755457	0.338934	-0.425595	0.365071	26.267974	-62.937167	35.328955
36982		0.763333	0.342440	-0.412928	0.359927	27.985316	-61.271934	33.699060
36983		0.771263	0.345799	-0.399895	0.354487	29.536926	-59.543049	32.217130
36984		0.779128	0.349270	-0.386475	0.348721	30.994341	-57.760215	30.834019
36985		0.786810	0.353058	-0.372678	0.342624	32.406533	-55.933228	29.520185
36986		0.794285	0.356918	-0.358670	0.336270	33.729171	-54.077764	28.301642
36987		0.801543	0.360693	-0.344553	0.329716	34.942643	-52.204263	27.186904
36988		0.808545	0.364342	-0.330406	0.323019	36.050550	-50.324695	26.171710
36989		0.815291	0.367808	-0.316246	0.316237	37.054045	-48.442880	25.254158
36990		0.821824	0.371016	-0.302169	0.309268	37.960428	-46.564249	24.407516
36991		0.828098	0.374095	-0.288237	0.302036	38.804709	-44.697026	23.599306
36992		0.834180	0.377048	-0.274278	0.294534	39.593897	-42.820316	22.826947
36993		0.839985	0.379945	-0.260370	0.286836	40.340635	-40.948309	22.088529
36994		0.845535	0.382744	-0.246664	0.278809	41.049323	-39.090814	21.357934
36995		0.851033	0.385031	-0.233297	0.270309	41.668455	-37.246174	20.626863
36996		0.856681	0.386501	-0.220160	0.261234	42.161018	-35.390716	19.893993
36997		0.862427	0.387139	-0.207359	0.251687	42.526364	-33.541392	19.160984
36998		0.868304	0.386966	-0.194644	0.241700	42.770328	-31.673640	18.432911
36999		0.874182	0.386165	-0.181962	0.231456	42.916915	-29.794917	17.720242
37000		0.879925	0.384879	-0.169475	0.221086	42.986439	-27.932615	17.021307
37001		0.885539	0.383049	-0.157190	0.210680	42.971691	-26.090941	16.342605
37002		0.891080	0.380596	-0.145074	0.200195	42.866150	-24.263317	15.677355
37003		0.896464	0.377630	-0.133187	0.189761	42.684657	-22.464712	15.029420
37004		0.901634	0.374258	-0.121523	0.179499	42.441009	-20.701360	14.405627
37005		0.906541	0.370516	-0.110165	0.169604	42.138506	-18.991071	13.819973
37006		0.911082	0.366721	-0.099036	0.160115	41.819365	-17.331236	13.269986
37007		0.915257	0.362946	-0.088073	0.151059	41.493631	-15.716137	12.758332
37008		0.919114	0.359091	-0.077485	0.142402	41.149738	-14.164496	12.273747
37009		0.922828	0.354756	-0.067699	0.133993	40.738407	-12.710188	11.787233
37010		0.926520	0.349671	-0.058729	0.125864	40.226192	-11.352830	11.302812
37011		0.930148	0.343969	-0.050582	0.118114	39.629359	-10.099239	10.826786
37012		0.933610	0.337984	-0.043360	0.110723	38.989026	-8.963628	10.348134
37013		0.936835	0.331960	-0.036782	0.103874	38.335569	-7.925264	9.895217
37014		0.939865	0.325881	-0.030438	0.097613	37.669352	-6.940303	9.488887
37015		0.942804	0.319549	-0.024309	0.091750	36.968441	-5.996910	9.110282
37016		0.945637	0.313023	-0.018614	0.086260	36.239266	-5.117991	8.748336
37017		0.948169	0.306961	-0.013419	0.081065	35.561240	-4.313511	8.389459
37018		0.950095	0.302390	-0.008613	0.076195	35.058161	-3.580366	8.039105
37019		0.951264	0.299882	-0.004010	0.071779	34.798436	-2.904964	7.719777
37020		0.951778	0.299201	0.000311	0.067800	34.753343	-2.291322	7.432093
37021		0.951880	0.299646	0.004199	0.064176	34.838034	-1.745895	7.166338
37022		0.951793	0.300543	0.007757	0.060855	34.972924	-1.249881	6.922977
37023		0.951566	0.301726	0.011176	0.057946	35.139860	-0.784841	6.720971
37024		0.951153	0.303346	0.014301	0.055530	35.356242	-0.371523	6.564079
37025		0.950557	0.305423	0.016731	0.053650	35.622323	-0.055289	6.443041
37026		0.949927	0.307516	0.018182	0.052357	35.883640	0.134215	6.353019
37027		0.949474	0.309018	0.018655	0.051568	36.067427	0.203657	6.283959
37028		0.949229	0.309833	0.018473	0.051251	36.164275	0.189792	6.242982
37029		0.949160	0.310060	0.017878	0.051361	36.187548	0.119661	6.233851
37030		0.949247	0.309747	0.016900	0.051984	36.143437	-0.006819	6.266914
37031		0.949337	0.309357	0.015455	0.053090	36.086930	-0.200743	6.336315
37032		0.949339	0.309177	0.013551	0.054597	36.052547	-0.460209	6.433207
37033		0.949183	0.309424	0.011242	0.056407	36.066367	-0.777328	6.548735
37034		0.948838	0.310187	0.008623	0.058451	36.139909	-1.140117	6.678255
37035		0.948260	0.311598	0.005797	0.060632	36.289611	-1.535192	6.813942
37036		0.947489	0.313516	0.002856	0.062960	36.499205	-1.952258	6.959592
37037		0.946589	0.315742	-0.000137	0.065394	36.744990	-2.381619	7.112772
37038		0.945626	0.318080	-0.003240	0.067868	37.003309	-2.825936	7.264386
37039		0.944668	0.320344	-0.006411	0.070299	37.252190	-3.276334	7.407353
37040		0.943705	0.322552	-0.009597	0.072724	37.494129	-3.728499	7.547459
37041		0.942755	0.324653	-0.012782	0.075170	37.722851	-4.181069	7.688701
37042		0.941815	0.326640	-0.016047	0.077675	37.937010	-4.644377	7.832369
37043		0.940897	0.328486	-0.019530	0.080174	38.132791	-5.130507	7.966591
37044		0.940005	0.330158	-0.023408	0.082691	38.305255	-5.659140	8.087646
37045		0.939143	0.331617	-0.027661	0.085298	38.449524	-6.230475	8.204815
37046		0.938295	0.332862	-0.032355	0.088082	38.564950	-6.854927	8.325085
37047		0.937453	0.333861	-0.037622	0.091122	38.646627	-7.549486	8.453005
37048		0.936623	0.334536	-0.043595	0.094455	38.684112	-8.329198	8.588952
37049		0.935782	0.334836	-0.050294	0.098320	38.669297	-9.205173	8.759796
37050		0.934991	0.334495	-0.057653	0.102863	38.567809	-10.173199	8.988622
37051		0.934267	0.333458	-0.065547	0.107957	38.372903	-11.214100	9.269709
37052		0.933535	0.332052	-0.073820	0.113162	38.128074	-12.296936	9.559263
37053		0.932652	0.330850	-0.082314	0.117998	37.909656	-13.392450	9.803291
37054		0.931584	0.330073	-0.090876	0.122253	37.749053	-14.478782	9.979175
37055		0.930286	0.329655	-0.099568	0.126421	37.633656	-15.581242	10.139102
37056		0.928685	0.329561	-0.108488	0.131014	37.552465	-16.729644	10.336489
37057		0.926666	0.329938	-0.117795	0.136220	37.520108	-17.950825	10.583715
37058		0.924243	0.330623	-0.127421	0.142219	37.512269	-19.243142	10.906369
37059		0.921585	0.331117	-0.137124	0.149127	37.460843	-20.579083	11.338423
37060		0.918757	0.331430	-0.146791	0.156497	37.371632	-21.929598	11.835640
37061		0.915604	0.332418	-0.156461	0.163363	37.372862	-23.273621	12.263954
37062		0.912095	0.334480	-0.165990	0.169274	37.530477	-24.584504	12.559894
37063		0.908314	0.337146	-0.175439	0.174700	37.778841	-25.881154	12.783024
37064		0.904378	0.339621	-0.185057	0.180312	38.000560	-27.206499	13.025057
37065		0.900283	0.341556	-0.195100	0.186458	38.139826	-28.598090	13.331643
37066		0.895968	0.342837	-0.205828	0.193232	38.175871	-30.087734	13.713732
37067		0.891455	0.343384	-0.217111	0.200646	38.090873	-31.660542	14.188158
37068		0.886839	0.343231	-0.228411	0.208655	37.880310	-33.254657	14.777104
37069		0.882025	0.343267	-0.239203	0.216754	37.674783	-34.804311	15.406809
37070		0.876892	0.344304	-0.249333	0.224382	37.609842	-36.283934	15.973079
37071		0.871515	0.346167	-0.258873	0.231549	37.667348	-37.700415	16.473784
37072		0.865977	0.348168	-0.268312	0.238477	37.747567	-39.106574	16.947746
37073		0.860482	0.349438	-0.278074	0.245232	37.722360	-40.537266	17.433932
37074		0.855130	0.349349	-0.288680	0.251739	37.499682	-42.036732	17.945438
37075		0.849867	0.347857	-0.300202	0.258071	37.060197	-43.614785	18.505883
37076		0.844565	0.345409	-0.312125	0.264537	36.440223	-45.232244	19.166976
37077		0.839180	0.342703	-0.323746	0.271146	35.731151	-46.820012	19.923418
37078		0.833506	0.340579	-0.334798	0.277820	35.065489	-48.361480	20.720244
37079		0.827390	0.339414	-0.345336	0.284548	34.509053	-49.872663	21.522377
37080		0.820820	0.339168	-0.355446	0.291337	34.060559	-51.364994	22.324117
37081		0.813967	0.339613	-0.365184	0.297929	33.705659	-52.830953	23.092675
37082		0.806987	0.340292	-0.374788	0.304150	33.384463	-54.281788	23.824252
37083		0.800151	0.340780	-0.384218	0.309844	33.035545	-55.694356	24.528213
37084		0.793691	0.340630	-0.393334	0.315141	32.561220	-57.041417	25.275637
37085		0.787700	0.339669	-0.402143	0.320054	31.919026	-58.316327	26.094384
37086		0.781772	0.338082	-0.411166	0.324770	31.115785	-59.595564	27.001444
37087		0.775575	0.336197	-0.420395	0.329733	30.152254	-60.903946	28.066879
37088		0.769004	0.334409	-0.429390	0.335303	29.047346	-62.209860	29.349177
37089		0.762035	0.333271	-0.437746	0.341485	27.902426	-63.478784	30.804352
37090		0.754574	0.333006	-0.445531	0.348177	26.768888	-64.724137	32.389883
37091		0.746716	0.333578	-0.452687	0.355268	25.650693	-65.934000	34.088881
37092		0.738562	0.334828	-0.459192	0.362711	24.515898	-67.098465	35.914809
37093		0.730235	0.336404	-0.465367	0.370166	23.317895	-68.233801	37.846083
37094		0.721810	0.337860	-0.471591	0.377416	21.953407	-69.361889	39.920081
37095		0.713499	0.339157	-0.477730	0.384272	20.437444	-70.454797	42.102878
37096		0.705382	0.340294	-0.483608	0.390845	18.747797	-71.488612	44.428929
37097		0.697518	0.341231	-0.489221	0.397106	16.872287	-72.456922	46.903853
37098		0.689825	0.342122	-0.494467	0.403232	14.814884	-73.355561	49.555002
37099		0.682184	0.343204	-0.499327	0.409278	12.625602	-74.195653	52.358962
37100		0.674657	0.344160	-0.504079	0.415086	10.208717	-74.988180	55.363984
37101		0.667619	0.344702	-0.508751	0.420282	7.593189	-75.707628	58.478089
37102		0.661294	0.344837	-0.513274	0.424650	4.895847	-76.341397	61.563661
37103		0.655686	0.344552	-0.517789	0.428081	2.156695	-76.907943	64.566328
37104		0.650779	0.343728	-0.522297	0.430748	-0.676450	-77.400827	67.542864
37105		0.646687	0.342284	-0.526734	0.432653	-3.552271	-77.807767	70.434436
37106		0.643212	0.340547	-0.531110	0.433853	-6.369057	-78.160798	73.174359
37107		0.640204	0.338854	-0.535290	0.434490	-9.011010	-78.477630	75.691948
37108		0.637541	0.337368	-0.538982	0.434997	-11.443892	-78.741005	78.012200
37109		0.635137	0.336233	-0.542024	0.435613	-13.612698	-78.948008	80.117155
37110		0.632945	0.335422	-0.544509	0.436328	-15.525407	-79.111625	82.010271
37111		0.630754	0.335131	-0.546538	0.437187	-17.205399	-79.262872	83.736106
