// General information: 
//  MT Manager version: 2022.2.0 
//  XDA version: 2022.2.0 build 7381 rev 124627 built on 2023-07-19
// Device information: 
//  DeviceId: 10B414FF
//  ProductCode: MTW2-3A7G6
//  Firmware Version: 4.14.0
//  Hardware Version: 3.0.0
// Device settings: 
//  Filter Profile: human(46.1)
//  Option Flags: Orientation Smoother Disabled, Position/Velocity Smoother Disabled, Continuous Zero Rotation Update Disabled, AHS Disabled, ICC Disabled
// Coordinate system: ENU
PacketCounter	SampleTimeFine	Quat_q0	Quat_q1	Quat_q2	Quat_q3	Roll	Pitch	Yaw
35519		0.316027	0.725916	0.107119	0.601414	97.451013	-53.653395	64.660164
35520		0.315948	0.725892	0.107136	0.601481	97.446161	-53.660678	64.673678
35521		0.315896	0.725894	0.107164	0.601501	97.448560	-53.663067	64.678356
35522		0.315779	0.725923	0.107223	0.601516	97.460055	-53.667433	64.682258
35523		0.315606	0.725954	0.107334	0.601550	97.474248	-53.672633	64.692844
35524		0.315362	0.725965	0.107510	0.601634	97.485928	-53.679952	64.717812
35525		0.315212	0.725989	0.107614	0.601665	97.497777	-53.683930	64.728036
35526		0.315087	0.725977	0.107697	0.601730	97.499030	-53.689171	64.745097
35527		0.314994	0.725961	0.107720	0.601794	97.496721	-53.696756	64.757763
35528		0.314875	0.725944	0.107775	0.601866	97.495702	-53.704194	64.774138
35529		0.314822	0.725920	0.107798	0.601920	97.490493	-53.708530	64.786198
35530		0.314683	0.725914	0.107902	0.601981	97.493972	-53.713004	64.803857
35531		0.314615	0.725926	0.107967	0.601990	97.500145	-53.713198	64.809225
35532		0.314497	0.725941	0.108033	0.602022	97.507978	-53.717824	64.817431
35533		0.314405	0.725973	0.108058	0.602027	97.519039	-53.722612	64.816787
35534		0.314246	0.725977	0.108103	0.602096	97.524149	-53.733554	64.829845
35535		0.314178	0.725967	0.108042	0.602155	97.520948	-53.745796	64.834262
35536		0.314069	0.725950	0.107998	0.602240	97.516879	-53.760699	64.844695
35537		0.314002	0.725940	0.107922	0.602302	97.513107	-53.774203	64.848380
35538		0.313884	0.725921	0.107895	0.602390	97.509320	-53.788537	64.860755
35539		0.313823	0.725914	0.107864	0.602436	97.507570	-53.797346	64.865479
35540		0.313797	0.725920	0.107804	0.602453	97.508096	-53.804715	64.862410
35541		0.313722	0.725900	0.107789	0.602519	97.503486	-53.814071	64.872664
35542		0.313656	0.725867	0.107787	0.602594	97.495337	-53.822285	64.886748
35543		0.313589	0.725821	0.107767	0.602687	97.483435	-53.832659	64.903209
35544		0.313456	0.725762	0.107804	0.602821	97.470320	-53.845129	64.931663
35545		0.313397	0.725691	0.107802	0.602937	97.451957	-53.854627	64.955461
35546		0.313302	0.725615	0.107866	0.603066	97.434369	-53.862014	64.987038
35547		0.313278	0.725553	0.107877	0.603152	97.417946	-53.866581	65.006784
35548		0.313299	0.725530	0.107872	0.603169	97.411221	-53.866289	65.011225
35549		0.313272	0.725512	0.107902	0.603201	97.407277	-53.867248	65.020112
35550		0.313252	0.725490	0.107887	0.603239	97.401324	-53.871459	65.026741
35551		0.313300	0.725456	0.107834	0.603265	97.389709	-53.873318	65.029710
35552		0.313326	0.725418	0.107759	0.603311	97.376727	-53.879323	65.034323
35553		0.313358	0.725358	0.107686	0.603379	97.357732	-53.885759	65.044591
35554		0.313459	0.725300	0.107528	0.603425	97.335746	-53.892926	65.044575
35555		0.313444	0.725232	0.107494	0.603521	97.316391	-53.900783	65.062733
35556		0.313367	0.725185	0.107513	0.603614	97.305246	-53.908785	65.082577
35557		0.313311	0.725126	0.107518	0.603712	97.290166	-53.916738	65.103230
35558		0.313194	0.725086	0.107584	0.603809	97.282834	-53.924157	65.126721
35559		0.313120	0.725080	0.107628	0.603847	97.283495	-53.927577	65.136409
35560		0.312961	0.725064	0.107710	0.603934	97.284026	-53.936287	65.157099
35561		0.312905	0.725047	0.107695	0.603986	97.280019	-53.943804	65.165042
35562		0.312942	0.725019	0.107579	0.604021	97.268383	-53.951755	65.163870
35563		0.312978	0.724963	0.107452	0.604092	97.248888	-53.962150	65.169820
35564		0.313078	0.724881	0.107292	0.604168	97.220322	-53.970813	65.176437
35565		0.313094	0.724823	0.107219	0.604242	97.202089	-53.978622	65.187396
35566		0.312972	0.724783	0.107275	0.604343	97.194552	-53.987286	65.210714
35567		0.312830	0.724802	0.107364	0.604378	97.204535	-53.992075	65.220894
35568		0.312686	0.724816	0.107443	0.604422	97.212902	-53.998049	65.231979
35569		0.312642	0.724813	0.107441	0.604448	97.212900	-54.002509	65.235854
35570		0.312646	0.724785	0.107382	0.604490	97.203478	-54.008585	65.240139
35571		0.312744	0.724757	0.107228	0.604500	97.189907	-54.014065	65.232322
35572		0.312761	0.724739	0.107112	0.604533	97.181556	-54.023399	65.229600
35573		0.312807	0.724741	0.107024	0.604523	97.178903	-54.026532	65.220927
35574		0.312809	0.724802	0.106982	0.604457	97.194503	-54.026852	65.201574
35575		0.312773	0.724851	0.106998	0.604414	97.208980	-54.026375	65.191486
35576		0.312751	0.724877	0.106993	0.604394	97.216632	-54.027449	65.185356
35577		0.312780	0.724889	0.106973	0.604368	97.218940	-54.025855	65.178786
35578		0.312827	0.724889	0.106922	0.604353	97.216620	-54.025833	65.172585
35579		0.312892	0.724880	0.106873	0.604339	97.211819	-54.024391	65.167521
35580		0.312905	0.724905	0.106883	0.604301	97.218677	-54.021039	65.160345
35581		0.312889	0.724921	0.106925	0.604282	97.224574	-54.018092	65.159161
35582		0.312812	0.724989	0.107096	0.604210	97.249272	-54.007070	65.155324
35583		0.312719	0.725072	0.107283	0.604126	97.278622	-53.995404	65.149551
35584		0.312669	0.725168	0.107430	0.604010	97.309859	-53.982464	65.134644
35585		0.312671	0.725245	0.107548	0.603896	97.334342	-53.968169	65.119497
35586		0.312708	0.725304	0.107611	0.603794	97.351833	-53.956137	65.103571
35587		0.312727	0.725343	0.107634	0.603733	97.362843	-53.950381	65.092643
35588		0.312705	0.725349	0.107685	0.603729	97.366145	-53.947701	65.095487
35589		0.312729	0.725350	0.107674	0.603717	97.365623	-53.946361	65.092910
35590		0.312737	0.725351	0.107720	0.603704	97.367135	-53.941666	65.094438
35591		0.312713	0.725344	0.107771	0.603715	97.367107	-53.939859	65.100855
35592		0.312619	0.725348	0.107924	0.603731	97.373899	-53.935306	65.115115
35593		0.312531	0.725372	0.108110	0.603715	97.386931	-53.926384	65.125258
35594		0.312386	0.725410	0.108341	0.603703	97.406064	-53.918127	65.138202
35595		0.312342	0.725436	0.108496	0.603667	97.418178	-53.907597	65.142643
35596		0.312372	0.725456	0.108572	0.603614	97.425229	-53.897155	65.139032
35597		0.312403	0.725460	0.108613	0.603585	97.427034	-53.890490	65.137841
35598		0.312455	0.725459	0.108641	0.603555	97.426586	-53.883228	65.135827
35599		0.312481	0.725452	0.108691	0.603541	97.425583	-53.876818	65.138606
35600		0.312382	0.725463	0.108871	0.603546	97.435152	-53.870029	65.152717
35601		0.312288	0.725497	0.109086	0.603515	97.451992	-53.858632	65.162013
35602		0.312126	0.725561	0.109390	0.603468	97.480478	-53.844398	65.172926
35603		0.311984	0.725614	0.109672	0.603425	97.505395	-53.830626	65.183870
35604		0.311878	0.725659	0.109894	0.603386	97.525593	-53.819119	65.191412
35605		0.311835	0.725664	0.110058	0.603373	97.532115	-53.808832	65.202270
35606		0.311896	0.725641	0.110058	0.603368	97.524936	-53.804250	65.203881
35607		0.311936	0.725563	0.110017	0.603448	97.501706	-53.808116	65.220303
35608		0.312026	0.725466	0.109881	0.603544	97.469758	-53.816430	65.233262
35609		0.312103	0.725360	0.109736	0.603658	97.435113	-53.827175	65.249225
35610		0.312127	0.725273	0.109616	0.603772	97.407534	-53.839855	65.265087
35611		0.312136	0.725198	0.109545	0.603870	97.384810	-53.849003	65.281304
35612		0.312092	0.725121	0.109510	0.603991	97.363589	-53.860128	65.303848
35613		0.312018	0.725059	0.109514	0.604103	97.347811	-53.869917	65.326908
35614		0.311981	0.725001	0.109483	0.604197	97.331737	-53.879056	65.343935
35615		0.311953	0.724899	0.109461	0.604339	97.303396	-53.888911	65.373258
35616		0.311987	0.724770	0.109343	0.604498	97.263968	-53.902575	65.400273
35617		0.312050	0.724629	0.109239	0.604652	97.221305	-53.912759	65.429041
35618		0.312112	0.724503	0.109086	0.604799	97.181490	-53.926590	65.451063
35619		0.312149	0.724405	0.108964	0.604919	97.150347	-53.938645	65.468990
35620		0.312163	0.724310	0.108859	0.605044	97.121069	-53.951156	65.488700
35621		0.312152	0.724246	0.108780	0.605141	97.101470	-53.962319	65.502938
35622		0.312073	0.724203	0.108801	0.605230	97.091238	-53.970173	65.522189
35623		0.312017	0.724172	0.108825	0.605291	97.084310	-53.974931	65.536225
35624		0.311974	0.724168	0.108849	0.605313	97.084727	-53.977032	65.541726
35625		0.311956	0.724151	0.108886	0.605336	97.081389	-53.976442	65.549804
35626		0.311895	0.724123	0.108951	0.605390	97.076352	-53.978015	65.565784
35627		0.311952	0.724098	0.108934	0.605394	97.068095	-53.975369	65.567552
35628		0.311991	0.724108	0.108902	0.605367	97.069398	-53.973912	65.560018
35629		0.311993	0.724115	0.108883	0.605362	97.070644	-53.975080	65.557083
35630		0.312006	0.724134	0.108844	0.605339	97.074578	-53.976215	65.548716
35631		0.312004	0.724156	0.108824	0.605317	97.080122	-53.976987	65.541575
35632		0.312052	0.724178	0.108777	0.605274	97.084247	-53.975432	65.529199
35633		0.312070	0.724190	0.108787	0.605249	97.087370	-53.972252	65.525284
35634		0.312053	0.724205	0.108812	0.605236	97.092495	-53.970927	65.523711
35635		0.311968	0.724247	0.108920	0.605210	97.108552	-53.967491	65.524148
35636		0.311794	0.724287	0.109084	0.605222	97.126929	-53.967753	65.534844
35637		0.311721	0.724336	0.109153	0.605189	97.143471	-53.966121	65.530431
35638		0.311724	0.724362	0.109156	0.605155	97.150717	-53.964174	65.523137
35639		0.311766	0.724352	0.109063	0.605162	97.144738	-53.968827	65.517657
35640		0.311747	0.724333	0.109008	0.605205	97.138288	-53.976272	65.521423
35641		0.311856	0.724313	0.108853	0.605200	97.126740	-53.980417	65.510489
35642		0.311887	0.724324	0.108745	0.605191	97.126088	-53.986199	65.499355
35643		0.311911	0.724338	0.108680	0.605173	97.127919	-53.988891	65.489971
35644		0.311946	0.724377	0.108614	0.605121	97.136138	-53.989329	65.473128
35645		0.311890	0.724395	0.108648	0.605122	97.143043	-53.990727	65.474060
35646		0.311825	0.724409	0.108696	0.605129	97.149272	-53.991914	65.477593
35647		0.311758	0.724419	0.108724	0.605146	97.153974	-53.995292	65.481185
35648		0.311756	0.724421	0.108655	0.605158	97.152667	-54.001377	65.477131
35649		0.311755	0.724415	0.108592	0.605177	97.149111	-54.007203	65.475599
35650		0.311788	0.724411	0.108472	0.605186	97.144151	-54.014603	65.467729
35651		0.311856	0.724393	0.108310	0.605202	97.133604	-54.023072	65.458903
35652		0.311904	0.724347	0.108189	0.605254	97.116802	-54.031396	65.461469
35653		0.312001	0.724327	0.108095	0.605245	97.107158	-54.031417	65.454694
35654		0.311977	0.724318	0.108087	0.605269	97.104656	-54.034749	65.458712
35655		0.311933	0.724344	0.108120	0.605256	97.113490	-54.034795	65.456608
35656		0.311912	0.724378	0.108137	0.605222	97.123807	-54.033526	65.449502
35657		0.311879	0.724391	0.108171	0.605218	97.128703	-54.033058	65.450387
35658		0.311921	0.724395	0.108121	0.605200	97.127757	-54.033187	65.443303
35659		0.311993	0.724361	0.108082	0.605210	97.116262	-54.031495	65.445152
35660		0.312088	0.724335	0.108008	0.605206	97.105511	-54.030333	65.441304
35661		0.312168	0.724304	0.107984	0.605206	97.094949	-54.026467	65.442668
35662		0.312196	0.724284	0.108014	0.605209	97.089910	-54.022150	65.447698
35663		0.312207	0.724265	0.108112	0.605209	97.087197	-54.013742	65.457447
35664		0.312231	0.724282	0.108211	0.605160	97.094145	-54.002129	65.456437
35665		0.312199	0.724295	0.108374	0.605132	97.102678	-53.990463	65.464149
35666		0.312159	0.724306	0.108536	0.605109	97.111060	-53.979589	65.472544
35667		0.312187	0.724313	0.108638	0.605069	97.115208	-53.967895	65.474217
35668		0.312208	0.724312	0.108707	0.605046	97.116657	-53.959975	65.476508
35669		0.312305	0.724307	0.108702	0.605003	97.113533	-53.951561	65.470517
35670		0.312397	0.724301	0.108694	0.604964	97.110173	-53.943866	65.464855
35671		0.312463	0.724306	0.108705	0.604922	97.110813	-53.936529	65.459058
35672		0.312443	0.724319	0.108813	0.604898	97.117574	-53.928458	65.462902
35673		0.312445	0.724326	0.108938	0.604866	97.123019	-53.917175	65.467543
35674		0.312475	0.724358	0.109031	0.604795	97.133938	-53.904645	65.461433
35675		0.312467	0.724363	0.109164	0.604769	97.139296	-53.893645	65.467666
35676		0.312427	0.724377	0.109290	0.604751	97.147229	-53.885865	65.473738
35677		0.312427	0.724377	0.109386	0.604733	97.149985	-53.877543	65.478719
35678		0.312373	0.724405	0.109484	0.604710	97.161225	-53.872754	65.480350
35679		0.312410	0.724427	0.109531	0.604656	97.168008	-53.864170	65.474073
35680		0.312451	0.724455	0.109558	0.604596	97.175836	-53.856510	65.464657
35681		0.312462	0.724477	0.109606	0.604555	97.183076	-53.850226	65.460232
35682		0.312652	0.724488	0.109484	0.604466	97.179496	-53.842234	65.436575
35683		0.312687	0.724475	0.109489	0.604462	97.175662	-53.839139	65.437665
35684		0.312705	0.724447	0.109496	0.604486	97.167801	-53.838375	65.444598
35685		0.312743	0.724418	0.109480	0.604503	97.158845	-53.837570	65.448762
35686		0.312707	0.724409	0.109528	0.604524	97.158194	-53.837355	65.456652
35687		0.312645	0.724417	0.109601	0.604534	97.163395	-53.836474	65.463050
35688		0.312564	0.724425	0.109688	0.604551	97.169351	-53.836268	65.471601
35689		0.312484	0.724456	0.109774	0.604538	97.181753	-53.834682	65.473396
35690		0.312410	0.724489	0.109878	0.604519	97.194796	-53.831035	65.475588
35691		0.312374	0.724524	0.109948	0.604483	97.206884	-53.826588	65.472376
35692		0.312358	0.724563	0.110002	0.604434	97.219469	-53.821475	65.465562
35693		0.312323	0.724597	0.110049	0.604403	97.230711	-53.818918	65.461242
35694		0.312290	0.724618	0.110100	0.604385	97.238593	-53.816553	65.460527
35695		0.312260	0.724622	0.110173	0.604383	97.242128	-53.812904	65.465680
35696		0.312252	0.724632	0.110202	0.604369	97.245892	-53.810527	65.464954
35697		0.312168	0.724632	0.110322	0.604391	97.250492	-53.808134	65.477821
35698		0.312020	0.724628	0.110454	0.604448	97.255486	-53.810834	65.497130
35699		0.311953	0.724617	0.110514	0.604485	97.255476	-53.812535	65.508197
35700		0.311960	0.724591	0.110517	0.604512	97.248298	-53.812959	65.515056
35701		0.311939	0.724562	0.110525	0.604556	97.240769	-53.815779	65.525221
35702		0.311972	0.724551	0.110506	0.604556	97.236599	-53.814851	65.524784
35703		0.311969	0.724546	0.110503	0.604564	97.235326	-53.815642	65.526173
35704		0.311865	0.724545	0.110604	0.604601	97.239497	-53.816802	65.539730
35705		0.311780	0.724586	0.110697	0.604578	97.254875	-53.814638	65.539550
35706		0.311653	0.724642	0.110815	0.604555	97.275547	-53.813613	65.539967
35707		0.311543	0.724683	0.110900	0.604547	97.291103	-53.814380	65.541269
35708		0.311506	0.724724	0.110912	0.604514	97.303395	-53.814777	65.533216
35709		0.311439	0.724763	0.110974	0.604491	97.316820	-53.813746	65.530925
35710		0.311333	0.724775	0.111044	0.604518	97.324072	-53.816989	65.538988
35711		0.311279	0.724799	0.111078	0.604511	97.332472	-53.817965	65.538169
35712		0.311171	0.724829	0.111138	0.604519	97.344193	-53.821373	65.541140
35713		0.311082	0.724873	0.111178	0.604506	97.358788	-53.824097	65.537784
35714		0.310894	0.724909	0.111281	0.604539	97.374859	-53.830946	65.547104
35715		0.310779	0.724975	0.111319	0.604513	97.395731	-53.835135	65.539627
35716		0.310538	0.725032	0.111461	0.604542	97.419550	-53.842572	65.549219
35717		0.310434	0.725126	0.111481	0.604480	97.447589	-53.845830	65.532012
35718		0.310328	0.725192	0.111461	0.604458	97.467161	-53.854108	65.520240
35719		0.310273	0.725251	0.111422	0.604422	97.483167	-53.859511	65.505899
35720		0.310099	0.725287	0.111466	0.604460	97.497303	-53.870306	65.511034
35721		0.310048	0.725330	0.111398	0.604448	97.507946	-53.878630	65.499360
35722		0.309968	0.725369	0.111357	0.604449	97.519056	-53.887689	65.492097
35723		0.309904	0.725405	0.111337	0.604442	97.529450	-53.893588	65.485686
35724		0.309800	0.725419	0.111361	0.604476	97.535523	-53.900651	65.491011
35725		0.309714	0.725453	0.111424	0.604467	97.548214	-53.901454	65.491172
35726		0.309597	0.725480	0.111490	0.604482	97.559671	-53.905381	65.495751
35727		0.309534	0.725509	0.111546	0.604469	97.570073	-53.904953	65.495494
35728		0.309500	0.725519	0.111557	0.604472	97.573817	-53.906701	65.495705
35729		0.309539	0.725511	0.111515	0.604469	97.569886	-53.906971	65.492743
35730		0.309540	0.725493	0.111492	0.604495	97.564279	-53.909922	65.496447
35731		0.309588	0.725488	0.111443	0.604486	97.560432	-53.909909	65.491897
35732		0.309638	0.725457	0.111391	0.604506	97.549760	-53.911224	65.493813
35733		0.309635	0.725452	0.111373	0.604517	97.547937	-53.913299	65.494461
35734		0.309619	0.725439	0.111412	0.604534	97.545776	-53.912157	65.501314
35735		0.309580	0.725420	0.111495	0.604562	97.543338	-53.909669	65.514105
35736		0.309526	0.725411	0.111623	0.604577	97.545488	-53.904139	65.527449
35737		0.309510	0.725392	0.111743	0.604585	97.543953	-53.896202	65.540283
35738		0.309511	0.725385	0.111846	0.604574	97.544882	-53.887701	65.547690
35739		0.309549	0.725371	0.111926	0.604557	97.542597	-53.877869	65.553150
35740		0.309614	0.725377	0.111961	0.604510	97.544275	-53.868517	65.548441
35741		0.309657	0.725395	0.111993	0.604460	97.549253	-53.860740	65.542074
35742		0.309743	0.725408	0.112021	0.604396	97.552088	-53.849552	65.533730
35743		0.309824	0.725432	0.112029	0.604323	97.557668	-53.840009	65.521390
35744		0.309774	0.725451	0.112212	0.604293	97.568774	-53.827945	65.529850
35745		0.309845	0.725481	0.112288	0.604206	97.577972	-53.813214	65.520358
35746		0.309861	0.725506	0.112446	0.604138	97.589118	-53.796669	65.520624
35747		0.309874	0.725527	0.112615	0.604075	97.599421	-53.779870	65.522965
35748		0.309799	0.725557	0.112805	0.604043	97.614207	-53.768969	65.530478
35749		0.309858	0.725558	0.112906	0.603991	97.616492	-53.754555	65.531118
35750		0.309958	0.725554	0.112938	0.603939	97.614666	-53.742617	65.526489
35751		0.310106	0.725555	0.112932	0.603863	97.612074	-53.729196	65.515105
35752		0.310249	0.725567	0.112918	0.603777	97.612591	-53.716263	65.500487
35753		0.310392	0.725599	0.112917	0.603667	97.618747	-53.701401	65.481199
35754		0.310521	0.725657	0.112937	0.603527	97.633003	-53.684456	65.456767
35755		0.310582	0.725733	0.113016	0.603388	97.655092	-53.667874	65.435329
35756		0.310559	0.725814	0.113128	0.603282	97.680758	-53.656150	65.420746
35757		0.310617	0.725899	0.113191	0.603138	97.704969	-53.640851	65.396236
35758		0.310611	0.725944	0.113296	0.603068	97.720168	-53.630032	65.390096
35759		0.310655	0.726016	0.113353	0.602948	97.740669	-53.617155	65.370007
35760		0.310569	0.726081	0.113523	0.602882	97.764755	-53.607236	65.367604
35761		0.310610	0.726141	0.113566	0.602781	97.781638	-53.596497	65.350340
35762		0.310662	0.726202	0.113572	0.602678	97.797735	-53.587781	65.329881
35763		0.310731	0.726261	0.113562	0.602574	97.812226	-53.579143	65.308136
35764		0.310787	0.726328	0.113526	0.602470	97.828685	-53.573310	65.283492
35765		0.310794	0.726380	0.113526	0.602405	97.842566	-53.569997	65.268741
35766		0.310754	0.726448	0.113524	0.602343	97.861946	-53.570292	65.252762
35767		0.310772	0.726500	0.113478	0.602280	97.874572	-53.569834	65.234506
35768		0.310752	0.726543	0.113436	0.602247	97.885345	-53.573034	65.222034
35769		0.310829	0.726562	0.113331	0.602203	97.886392	-53.573842	65.205328
35770		0.310860	0.726571	0.113257	0.602190	97.886299	-53.576906	65.196530
35771		0.310922	0.726578	0.113176	0.602165	97.884756	-53.577634	65.185728
35772		0.310919	0.726573	0.113104	0.602186	97.881409	-53.584349	65.183492
35773		0.310960	0.726565	0.113033	0.602189	97.876414	-53.587170	65.179011
35774		0.310985	0.726569	0.112957	0.602184	97.875195	-53.591058	65.171662
35775		0.311057	0.726550	0.112856	0.602189	97.865925	-53.594073	65.166186
35776		0.311192	0.726545	0.112687	0.602157	97.857310	-53.596152	65.148685
35777		0.311263	0.726526	0.112594	0.602161	97.848302	-53.598536	65.143597
35778		0.311297	0.726518	0.112524	0.602167	97.843551	-53.601810	65.139641
35779		0.311397	0.726510	0.112429	0.602142	97.837069	-53.601009	65.129210
35780		0.311409	0.726496	0.112386	0.602161	97.831749	-53.604305	65.129975
35781		0.311499	0.726508	0.112304	0.602115	97.831201	-53.602299	65.115614
35782		0.311625	0.726506	0.112190	0.602074	97.825277	-53.600381	65.100717
35783		0.311720	0.726508	0.112086	0.602041	97.821220	-53.600243	65.087561
35784		0.311830	0.726507	0.111981	0.602005	97.816062	-53.599030	65.074069
35785		0.311939	0.726501	0.111907	0.601969	97.810685	-53.595435	65.063626
35786		0.311956	0.726480	0.111906	0.601986	97.804603	-53.594977	65.068090
35787		0.312034	0.726464	0.111865	0.601972	97.797759	-53.592052	65.064538
35788		0.312066	0.726460	0.111858	0.601962	97.795915	-53.589851	65.062929
35789		0.312131	0.726417	0.111858	0.601981	97.782800	-53.586000	65.070162
35790		0.312174	0.726412	0.111884	0.601960	97.781501	-53.580002	65.069731
35791		0.312204	0.726395	0.111935	0.601955	97.777689	-53.573641	65.074980
35792		0.312166	0.726374	0.112071	0.601974	97.776540	-53.566498	65.090830
35793		0.312237	0.726355	0.112137	0.601948	97.771888	-53.555198	65.094447
35794		0.312314	0.726340	0.112186	0.601917	97.767899	-53.544439	65.095535
35795		0.312413	0.726320	0.112191	0.601890	97.760609	-53.535885	65.094269
35796		0.312586	0.726274	0.112070	0.601877	97.741908	-53.532385	65.087489
35797		0.312729	0.726201	0.111980	0.601908	97.716815	-53.530513	65.092351
35798		0.312798	0.726087	0.111923	0.602019	97.683177	-53.534891	65.115283
35799		0.312894	0.725978	0.111868	0.602112	97.650215	-53.536364	65.135304
35800		0.312930	0.725880	0.111897	0.602206	97.623592	-53.535582	65.161306
35801		0.312875	0.725801	0.112062	0.602300	97.607516	-53.530759	65.196190
35802		0.312692	0.725772	0.112396	0.602367	97.612076	-53.520744	65.235694
35803		0.312479	0.725753	0.112778	0.602429	97.621304	-53.508821	65.277224
35804		0.312324	0.725753	0.113078	0.602452	97.632558	-53.497391	65.304579
35805		0.312254	0.725710	0.113285	0.602503	97.627695	-53.488436	65.332958
35806		0.312321	0.725624	0.113265	0.602575	97.602558	-53.488304	65.350512
35807		0.312479	0.725514	0.113140	0.602648	97.566561	-53.489900	65.362222
35808		0.312572	0.725380	0.113034	0.602782	97.525253	-53.497428	65.386749
35809		0.312712	0.725294	0.112915	0.602835	97.496080	-53.498926	65.393596
35810		0.312790	0.725255	0.112867	0.602851	97.482731	-53.497773	65.396053
35811		0.312757	0.725252	0.112963	0.602853	97.485458	-53.492717	65.404260
35812		0.312748	0.725262	0.113057	0.602828	97.490917	-53.484920	65.407248
35813		0.312702	0.725253	0.113177	0.602840	97.492586	-53.479326	65.419572
35814		0.312681	0.725207	0.113187	0.602904	97.480816	-53.482849	65.434212
35815		0.312784	0.725115	0.113114	0.602976	97.451901	-53.484203	65.448126
35816		0.312883	0.725007	0.113000	0.603075	97.417516	-53.490305	65.464372
35817		0.312985	0.724908	0.112906	0.603159	97.386256	-53.493982	65.478931
35818		0.313020	0.724820	0.112882	0.603251	97.360905	-53.497290	65.499275
35819		0.313053	0.724760	0.112929	0.603298	97.345387	-53.493232	65.515887
35820		0.313066	0.724763	0.113014	0.603271	97.348512	-53.484480	65.518505
35821		0.313036	0.724780	0.113169	0.603237	97.357973	-53.473067	65.524422
35822		0.312998	0.724832	0.113351	0.603161	97.377934	-53.458187	65.522777
35823		0.313009	0.724880	0.113411	0.603085	97.392774	-53.449422	65.511688
35824		0.313162	0.724901	0.113328	0.602997	97.393517	-53.441167	65.490221
35825		0.313278	0.724898	0.113255	0.602954	97.388514	-53.436697	65.478551
35826		0.313410	0.724893	0.113153	0.602910	97.382054	-53.433296	65.464721
35827		0.313509	0.724865	0.113105	0.602902	97.371439	-53.429597	65.462475
35828		0.313560	0.724826	0.113142	0.602915	97.361048	-53.423633	65.471422
35829		0.313573	0.724817	0.113253	0.602897	97.361802	-53.413167	65.478515
35830		0.313507	0.724830	0.113473	0.602876	97.372551	-53.399850	65.491799
35831		0.313419	0.724858	0.113703	0.602844	97.388364	-53.386753	65.502856
35832		0.313372	0.724899	0.113912	0.602780	97.406292	-53.371001	65.506132
35833		0.313347	0.724905	0.114060	0.602757	97.412750	-53.360188	65.514052
35834		0.313404	0.724915	0.114077	0.602713	97.414940	-53.352909	65.508075
35835		0.313480	0.724893	0.114021	0.602710	97.406097	-53.351692	65.505472
35836		0.313537	0.724833	0.113960	0.602764	97.387025	-53.354642	65.514513
35837		0.313629	0.724781	0.113892	0.602792	97.369564	-53.354583	65.518169
35838		0.313609	0.724727	0.113911	0.602864	97.355615	-53.357630	65.535702
35839		0.313544	0.724707	0.114002	0.602904	97.354033	-53.356806	65.550644
35840		0.313365	0.724700	0.114203	0.602968	97.360771	-53.356681	65.576668
35841		0.313243	0.724692	0.114362	0.603010	97.365288	-53.354807	65.596355
35842		0.313109	0.724686	0.114497	0.603061	97.369950	-53.356106	65.614929
35843		0.313051	0.724678	0.114549	0.603092	97.370050	-53.357565	65.624438
35844		0.312950	0.724675	0.114596	0.603139	97.372373	-53.363107	65.635230
35845		0.312923	0.724676	0.114571	0.603156	97.372326	-53.367704	65.635564
35846		0.312919	0.724706	0.114530	0.603130	97.379298	-53.370177	65.625520
35847		0.312894	0.724706	0.114482	0.603152	97.378450	-53.376664	65.624704
35848		0.312906	0.724700	0.114398	0.603170	97.373950	-53.383149	65.621275
35849		0.312869	0.724693	0.114373	0.603201	97.372047	-53.389091	65.624571
35850		0.312802	0.724694	0.114364	0.603236	97.373261	-53.396109	65.628568
35851		0.312711	0.724711	0.114421	0.603252	97.381024	-53.398867	65.633837
35852		0.312537	0.724733	0.114529	0.603295	97.393011	-53.404764	65.646432
35853		0.312451	0.724767	0.114593	0.603287	97.405595	-53.405586	65.646777
35854		0.312439	0.724838	0.114601	0.603207	97.425161	-53.402417	65.628809
35855		0.312353	0.724893	0.114647	0.603176	97.442936	-53.403660	65.622513
35856		0.312257	0.724978	0.114686	0.603117	97.468768	-53.404987	65.608361
35857		0.312195	0.725047	0.114685	0.603065	97.488658	-53.407312	65.593834
35858		0.312163	0.725102	0.114646	0.603024	97.502848	-53.410850	65.579239
35859		0.312164	0.725123	0.114573	0.603012	97.506453	-53.416095	65.569553
35860		0.312186	0.725123	0.114466	0.603020	97.503151	-53.423214	65.562108
35861		0.312180	0.725127	0.114395	0.603033	97.502203	-53.429775	65.557728
35862		0.312168	0.725148	0.114337	0.603024	97.506488	-53.434728	65.549736
35863		0.312055	0.725170	0.114350	0.603054	97.514668	-53.443124	65.552750
35864		0.311964	0.725203	0.114354	0.603061	97.525192	-53.449679	65.550763
35865		0.311853	0.725230	0.114373	0.603081	97.535155	-53.457007	65.552391
35866		0.311756	0.725245	0.114382	0.603113	97.540966	-53.464690	65.556166
35867		0.311716	0.725253	0.114341	0.603131	97.542762	-53.471495	65.554562
35868		0.311695	0.725258	0.114260	0.603152	97.542013	-53.480333	65.550610
35869		0.311643	0.725274	0.114188	0.603173	97.545104	-53.490604	65.546321
35870		0.311487	0.725283	0.114206	0.603239	97.550690	-53.503234	65.556274
35871		0.311417	0.725274	0.114175	0.603292	97.548683	-53.513020	65.562194
35872		0.311397	0.725268	0.114088	0.603326	97.544893	-53.522663	65.560645
35873		0.311322	0.725248	0.114059	0.603394	97.539831	-53.533326	65.570120
35874		0.311275	0.725207	0.114007	0.603478	97.527820	-53.544366	65.582352
35875		0.311213	0.725172	0.113941	0.603564	97.517533	-53.557671	65.592842
35876		0.311178	0.725159	0.113856	0.603614	97.512024	-53.569052	65.594684
35877		0.311138	0.725133	0.113750	0.603685	97.502610	-53.583249	65.599089
35878		0.311097	0.725117	0.113655	0.603743	97.496271	-53.596232	65.601371
35879		0.311102	0.725122	0.113522	0.603760	97.493543	-53.606930	65.592717
35880		0.311101	0.725130	0.113411	0.603772	97.492516	-53.616226	65.584681
35881		0.311108	0.725140	0.113300	0.603777	97.492114	-53.624597	65.575400
35882		0.311001	0.725140	0.113280	0.603836	97.493237	-53.636514	65.582342
35883		0.310942	0.725139	0.113225	0.603879	97.492270	-53.646845	65.584167
35884		0.310911	0.725138	0.113166	0.603907	97.490868	-53.654925	65.583550
35885		0.310810	0.725125	0.113189	0.603970	97.489636	-53.663030	65.595805
35886		0.310678	0.725099	0.113275	0.604053	97.487247	-53.669354	65.617297
35887		0.310611	0.725095	0.113364	0.604075	97.489800	-53.668145	65.628189
35888		0.310508	0.725099	0.113484	0.604100	97.496284	-53.667284	65.640934
35889		0.310475	0.725117	0.113533	0.604086	97.503142	-53.665186	65.640956
35890		0.310543	0.725139	0.113465	0.604038	97.506089	-53.663550	65.626268
35891		0.310616	0.725154	0.113398	0.603995	97.507027	-53.661736	65.613203
35892		0.310721	0.725148	0.113277	0.603971	97.500193	-53.662639	65.600524
35893		0.310789	0.725124	0.113191	0.603981	97.489972	-53.664871	65.597567
35894		0.310745	0.725104	0.113215	0.604023	97.485922	-53.667930	65.607623
35895		0.310706	0.725098	0.113236	0.604046	97.485596	-53.670103	65.613234
35896		0.310687	0.725105	0.113258	0.604044	97.488189	-53.669733	65.614128
35897		0.310598	0.725113	0.113377	0.604058	97.495340	-53.667421	65.624832
35898		0.310373	0.725124	0.113626	0.604114	97.509412	-53.666457	65.651622
35899		0.310291	0.725155	0.113750	0.604094	97.522940	-53.661771	65.655603
35900		0.310167	0.725177	0.113914	0.604102	97.535698	-53.658254	65.667500
35901		0.310114	0.725185	0.113971	0.604108	97.540584	-53.657790	65.672110
35902		0.310072	0.725229	0.113990	0.604073	97.553786	-53.657883	65.664148
35903		0.310034	0.725229	0.114018	0.604087	97.555252	-53.658996	65.668370
35904		0.310046	0.725233	0.113998	0.604080	97.555473	-53.659381	65.665441
35905		0.309991	0.725236	0.114064	0.604093	97.559090	-53.658725	65.672217
35906		0.309819	0.725248	0.114241	0.604133	97.570553	-53.658966	65.690869
35907		0.309674	0.725294	0.114411	0.604120	97.590486	-53.655603	65.697936
35908		0.309577	0.725345	0.114522	0.604087	97.609344	-53.652517	65.696831
35909		0.309471	0.725376	0.114631	0.604084	97.622784	-53.651397	65.701916
35910		0.309344	0.725384	0.114706	0.604125	97.629231	-53.656454	65.713095
35911		0.309304	0.725372	0.114697	0.604162	97.626314	-53.661599	65.718951
35912		0.309316	0.725360	0.114621	0.604185	97.620628	-53.667666	65.717298
35913		0.309291	0.725339	0.114582	0.604229	97.614297	-53.674384	65.722758
35914		0.309282	0.725325	0.114551	0.604257	97.609723	-53.678712	65.725616
35915		0.309191	0.725320	0.114611	0.604298	97.611654	-53.682336	65.736845
35916		0.309108	0.725329	0.114651	0.604322	97.616739	-53.686167	65.742532
35917		0.308963	0.725341	0.114748	0.604364	97.625166	-53.690830	65.755245
35918		0.308807	0.725329	0.114876	0.604433	97.628472	-53.694939	65.776613
35919		0.308725	0.725320	0.114899	0.604482	97.627893	-53.701243	65.786499
35920		0.308634	0.725296	0.114941	0.604549	97.624175	-53.707368	65.801964
35921		0.308626	0.725280	0.114932	0.604574	97.619593	-53.709747	65.806561
35922		0.308677	0.725293	0.114890	0.604540	97.621145	-53.707895	65.796942
35923		0.308668	0.725305	0.114923	0.604524	97.625453	-53.705218	65.796152
35924		0.308624	0.725322	0.114955	0.604520	97.631953	-53.705721	65.796215
35925		0.308598	0.725357	0.114994	0.604484	97.643122	-53.702960	65.790530
35926		0.308546	0.725374	0.115020	0.604485	97.649452	-53.704723	65.790975
35927		0.308529	0.725356	0.115011	0.604517	97.644520	-53.708013	65.796777
35928		0.308539	0.725363	0.114978	0.604510	97.645367	-53.709681	65.792293
35929		0.308495	0.725346	0.115000	0.604549	97.641957	-53.712745	65.801483
35930		0.308404	0.725336	0.115089	0.604590	97.643483	-53.714154	65.815612
35931		0.308354	0.725357	0.115175	0.604574	97.652456	-53.710313	65.818227
35932		0.308275	0.725389	0.115296	0.604552	97.666313	-53.705534	65.821306
35933		0.308206	0.725427	0.115389	0.604524	97.680607	-53.702047	65.820816
35934		0.308199	0.725485	0.115378	0.604460	97.696261	-53.700640	65.804714
35935		0.308183	0.725515	0.115357	0.604436	97.704150	-53.702445	65.796507
35936		0.308196	0.725520	0.115282	0.604438	97.703008	-53.707470	65.790266
35937		0.308245	0.725508	0.115173	0.604449	97.695622	-53.713011	65.784345
35938		0.308294	0.725492	0.115062	0.604464	97.687387	-53.718780	65.779091
35939		0.308301	0.725468	0.115008	0.604500	97.678881	-53.723993	65.782501
35940		0.308313	0.725470	0.114940	0.604504	97.677416	-53.728612	65.777293
35941		0.308257	0.725467	0.114983	0.604528	97.678677	-53.730298	65.784717
35942		0.308137	0.725456	0.115063	0.604588	97.680006	-53.735320	65.800867
35943		0.308067	0.725439	0.115123	0.604632	97.678365	-53.737534	65.813845
35944		0.307994	0.725413	0.115183	0.604689	97.674360	-53.740526	65.829447
35945		0.307974	0.725389	0.115183	0.604727	97.668152	-53.743626	65.837421
35946		0.307889	0.725385	0.115272	0.604759	97.671003	-53.744109	65.849659
35947		0.307863	0.725392	0.115284	0.604761	97.673813	-53.745149	65.850129
35948		0.307805	0.725372	0.115354	0.604802	97.671270	-53.745656	65.863712
35949		0.307827	0.725373	0.115357	0.604788	97.671352	-53.743176	65.861884
35950		0.307771	0.725334	0.115416	0.604853	97.663228	-53.745415	65.880013
35951		0.307801	0.725304	0.115392	0.604879	97.653767	-53.746258	65.884919
35952		0.307789	0.725267	0.115407	0.604925	97.644414	-53.747913	65.896653
35953		0.307728	0.725252	0.115459	0.604964	97.642856	-53.749850	65.908053
35954		0.307637	0.725245	0.115512	0.605010	97.643925	-53.754269	65.919645
35955		0.307557	0.725247	0.115556	0.605039	97.647170	-53.757821	65.927160
35956		0.307594	0.725244	0.115553	0.605025	97.645609	-53.754773	65.925106
35957		0.307614	0.725212	0.115537	0.605056	97.636053	-53.755894	65.931609
35958		0.307719	0.725189	0.115480	0.605041	97.626246	-53.752163	65.927394
35959		0.307747	0.725159	0.115494	0.605060	97.618096	-53.749853	65.934231
35960		0.307700	0.725129	0.115565	0.605106	97.612591	-53.749699	65.949826
35961		0.307700	0.725094	0.115610	0.605140	97.604418	-53.747600	65.961848
35962		0.307614	0.725051	0.115702	0.605216	97.596915	-53.749826	65.984722
35963		0.307570	0.725013	0.115772	0.605271	97.589270	-53.749949	66.002188
35964		0.307496	0.724992	0.115861	0.605318	97.587189	-53.750225	66.018343
35965		0.307430	0.724965	0.115953	0.605365	97.583858	-53.749882	66.035260
35966		0.307360	0.724968	0.116065	0.605376	97.589138	-53.746507	66.045452
35967		0.307350	0.724953	0.116101	0.605392	97.586130	-53.745115	66.052377
35968		0.307343	0.724934	0.116112	0.605416	97.581387	-53.745815	66.058663
35969		0.307394	0.724913	0.116056	0.605426	97.573140	-53.746920	66.057806
35970		0.307421	0.724879	0.115988	0.605466	97.561323	-53.751985	66.061661
35971		0.307440	0.724862	0.115925	0.605489	97.554442	-53.756489	66.061710
35972		0.307441	0.724856	0.115853	0.605510	97.550655	-53.762977	66.059507
35973		0.307419	0.724847	0.115851	0.605532	97.548684	-53.765682	66.063362
35974		0.307372	0.724829	0.115855	0.605577	97.544512	-53.770641	66.072154
35975		0.307361	0.724814	0.115914	0.605589	97.542288	-53.767359	66.080241
35976		0.307406	0.724798	0.115914	0.605585	97.537332	-53.763896	66.081149
35977		0.307435	0.724796	0.115940	0.605568	97.537038	-53.759065	66.081042
35978		0.307402	0.724778	0.115999	0.605594	97.534467	-53.757975	66.091448
35979		0.307445	0.724762	0.115958	0.605600	97.527917	-53.758298	66.090797
35980		0.307443	0.724725	0.115942	0.605648	97.517420	-53.761697	66.100205
35981		0.307485	0.724675	0.115860	0.605703	97.500421	-53.767497	66.106748
35982		0.307569	0.724623	0.115773	0.605738	97.482343	-53.769726	66.110213
35983		0.307615	0.724577	0.115803	0.605765	97.469652	-53.765164	66.121324
35984		0.307635	0.724569	0.115885	0.605748	97.469679	-53.756609	66.126194
35985		0.307600	0.724567	0.116026	0.605742	97.473882	-53.747821	66.136809
35986		0.307550	0.724578	0.116183	0.605724	97.482396	-53.738367	66.145627
35987		0.307498	0.724598	0.116307	0.605702	97.492667	-53.731400	66.150198
35988		0.307522	0.724606	0.116316	0.605679	97.494658	-53.728017	66.146740
35989		0.307581	0.724560	0.116247	0.605717	97.478922	-53.730736	66.151605
35990		0.307699	0.724501	0.116090	0.605757	97.456183	-53.736179	66.150921
35991		0.307822	0.724434	0.115932	0.605806	97.430948	-53.741789	66.152153
35992		0.307897	0.724353	0.115850	0.605880	97.405123	-53.745934	66.164704
35993		0.307965	0.724309	0.115796	0.605909	97.390261	-53.746483	66.169138
35994		0.307962	0.724281	0.115819	0.605940	97.383197	-53.746168	66.178407
35995		0.307931	0.724283	0.115892	0.605938	97.386571	-53.742615	66.183763
35996		0.307947	0.724315	0.115886	0.605894	97.394854	-53.740083	66.173530
35997		0.307928	0.724318	0.115898	0.605897	97.396477	-53.740664	66.174591
35998		0.307968	0.724297	0.115827	0.605916	97.387729	-53.744086	66.173900
35999		0.308065	0.724257	0.115711	0.605936	97.371844	-53.746955	66.171602
36000		0.308197	0.724206	0.115576	0.605955	97.351644	-53.748869	66.168903
36001		0.308291	0.724189	0.115519	0.605939	97.343662	-53.745877	66.163751
36002		0.308291	0.724207	0.115564	0.605908	97.350043	-53.741076	66.160924
36003		0.308275	0.724251	0.115632	0.605852	97.364189	-53.734498	66.153766
36004		0.308136	0.724294	0.115804	0.605838	97.383532	-53.730500	66.160982
36005		0.308087	0.724335	0.115851	0.605805	97.396966	-53.729010	66.155767
36006		0.308094	0.724357	0.115835	0.605778	97.402406	-53.728549	66.148380
36007		0.308162	0.724333	0.115742	0.605790	97.392022	-53.731434	66.144956
36008		0.308140	0.724326	0.115733	0.605811	97.390167	-53.734576	66.148145
36009		0.308166	0.724333	0.115691	0.605798	97.390220	-53.735468	66.142217
36010		0.308153	0.724361	0.115710	0.605767	97.398756	-53.733599	66.136342
36011		0.308175	0.724384	0.115712	0.605729	97.404641	-53.730317	66.128585
36012		0.308183	0.724419	0.115714	0.605683	97.414223	-53.727623	66.118419
36013		0.308190	0.724449	0.115723	0.605641	97.422718	-53.724660	66.109913
36014		0.308198	0.724508	0.115729	0.605565	97.438851	-53.720359	66.093495
36015		0.308150	0.724548	0.115731	0.605541	97.450704	-53.722644	66.085974
36016		0.308190	0.724576	0.115654	0.605501	97.455548	-53.724113	66.071134
36017		0.308217	0.724583	0.115589	0.605493	97.454815	-53.726895	66.064045
36018		0.308294	0.724576	0.115485	0.605481	97.448735	-53.728998	66.054643
36019		0.308452	0.724538	0.115330	0.605476	97.430993	-53.729554	66.045472
36020		0.308588	0.724511	0.115204	0.605463	97.417574	-53.729023	66.036257
36021		0.308738	0.724504	0.115091	0.605416	97.409886	-53.725017	66.021142
36022		0.308865	0.724515	0.115026	0.605350	97.408947	-53.718188	66.005236
36023		0.308926	0.724551	0.114980	0.605286	97.416199	-53.714627	65.988548
36024		0.308973	0.724581	0.114971	0.605227	97.423536	-53.709403	65.976140
36025		0.309086	0.724595	0.114911	0.605164	97.423547	-53.703354	65.960897
36026		0.309180	0.724580	0.114855	0.605144	97.416429	-53.700041	65.954967
36027		0.309357	0.724558	0.114759	0.605098	97.404522	-53.692890	65.942934
36028		0.309562	0.724532	0.114611	0.605054	97.389498	-53.687830	65.927330
36029		0.309742	0.724521	0.114543	0.604987	97.381687	-53.677294	65.913293
36030		0.309912	0.724517	0.114468	0.604920	97.375383	-53.668111	65.897991
36031		0.310080	0.724520	0.114407	0.604841	97.371700	-53.657460	65.881437
36032		0.310255	0.724516	0.114320	0.604772	97.365203	-53.648682	65.864990
36033		0.310434	0.724499	0.114223	0.604719	97.354775	-53.641114	65.851219
36034		0.310651	0.724487	0.114085	0.604648	97.343897	-53.633256	65.831044
36035		0.310818	0.724456	0.113974	0.604620	97.329521	-53.628729	65.821276
36036		0.310999	0.724430	0.113863	0.604580	97.315952	-53.622691	65.809369
36037		0.311133	0.724410	0.113805	0.604545	97.306585	-53.616071	65.801805
36038		0.311260	0.724446	0.113741	0.604448	97.312739	-53.607785	65.778827
36039		0.311362	0.724507	0.113729	0.604326	97.327173	-53.596149	65.754010
36040		0.311510	0.724543	0.113715	0.604208	97.334368	-53.581536	65.732118
36041		0.311723	0.724604	0.113655	0.604037	97.345590	-53.563647	65.696477
36042		0.311956	0.724669	0.113575	0.603853	97.357310	-53.545224	65.656847
36043		0.312162	0.724761	0.113550	0.603641	97.378189	-53.523376	65.615003
36044		0.312238	0.724891	0.113615	0.603434	97.414296	-53.503888	65.576957
36045		0.312302	0.725054	0.113761	0.603177	97.461888	-53.476865	65.535104
36046		0.312386	0.725199	0.113889	0.602935	97.503636	-53.450337	65.495863
36047		0.312422	0.725336	0.114091	0.602714	97.546149	-53.422428	65.466332
36048		0.312418	0.725469	0.114320	0.602512	97.589017	-53.396074	65.442188
36049		0.312426	0.725600	0.114538	0.602308	97.630907	-53.369606	65.417153
36050		0.312444	0.725725	0.114728	0.602112	97.669931	-53.344913	65.391741
36051		0.312422	0.725833	0.114881	0.601965	97.703917	-53.328152	65.372103
36052		0.312380	0.725923	0.114996	0.601856	97.732371	-53.317423	65.356618
36053		0.312352	0.726000	0.115047	0.601768	97.755244	-53.311687	65.340268
36054		0.312401	0.726035	0.114987	0.601712	97.762171	-53.310330	65.323912
36055		0.312372	0.726051	0.114938	0.601717	97.765617	-53.316450	65.318939
36056		0.312413	0.726080	0.114842	0.601679	97.770018	-53.319305	65.302928
36057		0.312374	0.726088	0.114801	0.601697	97.771890	-53.326140	65.301281
36058		0.312310	0.726108	0.114777	0.601711	97.777739	-53.333274	65.299180
36059		0.312187	0.726149	0.114780	0.601724	97.791066	-53.342352	65.297163
36060		0.312103	0.726193	0.114730	0.601725	97.802891	-53.352368	65.288840
36061		0.311923	0.726259	0.114710	0.601742	97.823375	-53.367523	65.282838
36062		0.311710	0.726310	0.114682	0.601796	97.840370	-53.387426	65.282750
36063		0.311526	0.726358	0.114618	0.601845	97.854836	-53.407691	65.279625
36064		0.311305	0.726378	0.114567	0.601945	97.862718	-53.431894	65.287582
36065		0.311171	0.726399	0.114489	0.602004	97.868433	-53.450149	65.287649
36066		0.311072	0.726425	0.114399	0.602042	97.874665	-53.466001	65.282990
36067		0.310911	0.726479	0.114425	0.602054	97.893135	-53.475972	65.281053
36068		0.310721	0.726552	0.114513	0.602047	97.918884	-53.482453	65.279607
36069		0.310472	0.726628	0.114630	0.602062	97.947289	-53.491767	65.283194
36070		0.310298	0.726697	0.114671	0.602060	97.970368	-53.500950	65.279163
36071		0.310179	0.726716	0.114624	0.602108	97.976246	-53.515309	65.280182
36072		0.310154	0.726699	0.114483	0.602168	97.968191	-53.530688	65.279033
36073		0.310187	0.726661	0.114309	0.602230	97.952270	-53.544647	65.277675
36074		0.310238	0.726605	0.114166	0.602298	97.932075	-53.555178	65.281688
36075		0.310293	0.726568	0.114081	0.602331	97.918630	-53.559280	65.283302
36076		0.310296	0.726571	0.114081	0.602325	97.919421	-53.558798	65.282272
36077		0.310205	0.726594	0.114161	0.602330	97.929372	-53.559233	65.287045
36078		0.310129	0.726565	0.114270	0.602384	97.925867	-53.558590	65.306416
36079		0.310056	0.726543	0.114361	0.602430	97.923777	-53.558733	65.322686
36080		0.310045	0.726522	0.114409	0.602452	97.919582	-53.556760	65.331857
36081		0.310014	0.726456	0.114518	0.602527	97.905194	-53.553685	65.358201
36082		0.310013	0.726389	0.114628	0.602587	97.890082	-53.547829	65.382666
36083		0.310016	0.726331	0.114782	0.602627	97.878547	-53.537327	65.406616
36084		0.310011	0.726277	0.114940	0.602664	97.868356	-53.526944	65.430392
36085		0.310101	0.726219	0.115015	0.602673	97.853137	-53.514978	65.443727
36086		0.310183	0.726193	0.115082	0.602650	97.846466	-53.502852	65.448472
36087		0.310230	0.726194	0.115115	0.602618	97.846980	-53.495592	65.446467
36088		0.310259	0.726176	0.115131	0.602622	97.841976	-53.492385	65.450151
36089		0.310260	0.726189	0.115156	0.602601	97.846274	-53.489450	65.447864
36090		0.310283	0.726189	0.115186	0.602584	97.846603	-53.484727	65.447857
36091		0.310275	0.726164	0.115283	0.602598	97.842912	-53.478284	65.460265
36092		0.310200	0.726148	0.115465	0.602621	97.845145	-53.470419	65.479839
36093		0.310106	0.726130	0.115685	0.602649	97.848163	-53.461214	65.503478
36094		0.310000	0.726118	0.115923	0.602673	97.853512	-53.451312	65.527290
36095		0.309846	0.726125	0.116187	0.602692	97.865912	-53.442525	65.550555
36096		0.309679	0.726173	0.116444	0.602672	97.889203	-53.433597	65.563345
36097		0.309528	0.726206	0.116660	0.602667	97.907293	-53.427317	65.576652
36098		0.309444	0.726264	0.116771	0.602619	97.927722	-53.422659	65.572800
36099		0.309287	0.726322	0.116917	0.602602	97.950419	-53.421678	65.576141
36100		0.309119	0.726389	0.117011	0.602589	97.974360	-53.425913	65.575052
36101		0.308982	0.726443	0.117082	0.602580	97.993719	-53.429857	65.573787
36102		0.308824	0.726470	0.117113	0.602622	98.004816	-53.440532	65.579486
36103		0.308683	0.726507	0.117133	0.602646	98.017900	-53.450207	65.580701
36104		0.308546	0.726540	0.117104	0.602682	98.028638	-53.463820	65.579979
36105		0.308424	0.726547	0.117028	0.602751	98.030438	-53.481597	65.582970
36106		0.308316	0.726537	0.116883	0.602846	98.025462	-53.504694	65.585848
36107		0.308242	0.726519	0.116672	0.602947	98.015731	-53.530995	65.585059
36108		0.308168	0.726484	0.116457	0.603068	98.001307	-53.558421	65.588595
36109		0.308143	0.726438	0.116216	0.603183	97.982315	-53.583958	65.590218
36110		0.308064	0.726422	0.116055	0.603274	97.974613	-53.606214	65.591863
36111		0.308033	0.726426	0.115953	0.603304	97.973318	-53.617641	65.587582
36112		0.307930	0.726440	0.115965	0.603338	97.979246	-53.625617	65.591951
36113		0.307934	0.726458	0.115952	0.603316	97.983834	-53.625404	65.585888
36114		0.307984	0.726472	0.115932	0.603278	97.986071	-53.621719	65.577418
36115		0.308071	0.726486	0.115887	0.603226	97.987004	-53.616692	65.564851
36116		0.308220	0.726484	0.115755	0.603177	97.980140	-53.614140	65.547452
36117		0.308568	0.726418	0.115393	0.603148	97.945408	-53.616154	65.521043
36118		0.309073	0.726269	0.114896	0.603163	97.881620	-53.619394	65.498660
36119		0.309638	0.726104	0.114341	0.603178	97.810634	-53.622937	65.473271
36120		0.310060	0.725953	0.113931	0.603220	97.750295	-53.626499	65.462073
36121		0.310276	0.725937	0.113749	0.603163	97.736889	-53.622727	65.440960
36122		0.310270	0.726022	0.113835	0.603047	97.762827	-53.611455	65.422365
36123		0.310175	0.726149	0.114071	0.602899	97.805765	-53.593286	65.407110
36124		0.310160	0.726273	0.114301	0.602714	97.846422	-53.568366	65.386388
36125		0.310219	0.726348	0.114432	0.602567	97.869768	-53.547464	65.368241
36126		0.310425	0.726361	0.114369	0.602459	97.867742	-53.532908	65.346381
36127		0.310715	0.726317	0.114195	0.602395	97.845795	-53.522944	65.327852
36128		0.310966	0.726271	0.113999	0.602358	97.823362	-53.518642	65.311494
36129		0.311187	0.726245	0.113818	0.602309	97.807203	-53.514855	65.292759
36130		0.311270	0.726255	0.113758	0.602265	97.806898	-53.511663	65.280609
36131		0.311237	0.726300	0.113834	0.602214	97.821850	-53.505762	65.274750
36132		0.311200	0.726362	0.113952	0.602136	97.842587	-53.495861	65.266896
36133		0.311160	0.726396	0.114120	0.602083	97.857494	-53.483264	65.269337
36134		0.311160	0.726426	0.114245	0.602024	97.869061	-53.470881	65.267938
36135		0.311185	0.726418	0.114310	0.602008	97.868361	-53.463361	65.271688
36136		0.311275	0.726392	0.114244	0.602005	97.857875	-53.461926	65.268577
36137		0.311362	0.726352	0.114166	0.602024	97.843025	-53.462664	65.269305
36138		0.311403	0.726304	0.114092	0.602075	97.827204	-53.467659	65.275474
36139		0.311408	0.726274	0.114046	0.602117	97.817587	-53.472746	65.280898
36140		0.311345	0.726260	0.114043	0.602167	97.814810	-53.479666	65.289194
36141		0.311267	0.726241	0.114104	0.602218	97.812918	-53.482784	65.303288
36142		0.311140	0.726236	0.114188	0.602274	97.816170	-53.487709	65.318435
36143		0.311025	0.726217	0.114311	0.602333	97.816446	-53.488966	65.338716
36144		0.310952	0.726218	0.114370	0.602359	97.819591	-53.490732	65.347103
36145		0.310891	0.726176	0.114410	0.602433	97.810383	-53.495221	65.365234
36146		0.310911	0.726143	0.114333	0.602478	97.798737	-53.501727	65.368848
36147		0.310903	0.726093	0.114236	0.602560	97.782494	-53.513452	65.377968
36148		0.310910	0.726027	0.114088	0.602664	97.760123	-53.529115	65.387711
36149		0.310942	0.725941	0.113932	0.602780	97.731755	-53.543958	65.400618
36150		0.310850	0.725894	0.113879	0.602895	97.718932	-53.559740	65.417607
36151		0.310719	0.725863	0.113897	0.602995	97.713475	-53.572080	65.436527
36152		0.310441	0.725838	0.114063	0.603138	97.716086	-53.585305	65.472772
36153		0.310323	0.725807	0.114141	0.603221	97.711774	-53.591219	65.494251
36154		0.310308	0.725754	0.114163	0.603288	97.698310	-53.593416	65.511052
36155		0.310286	0.725705	0.114218	0.603349	97.686687	-53.593405	65.529343
36156		0.310275	0.725667	0.114236	0.603396	97.677122	-53.594890	65.541457
36157		0.310218	0.725643	0.114304	0.603442	97.673407	-53.595523	65.555936
36158		0.310141	0.725619	0.114385	0.603495	97.670502	-53.597080	65.572590
36159		0.310078	0.725598	0.114438	0.603542	97.667457	-53.599446	65.585717
36160		0.310016	0.725570	0.114484	0.603600	97.662123	-53.602885	65.600525
36161		0.310013	0.725523	0.114477	0.603658	97.649161	-53.606108	65.613270
36162		0.309984	0.725484	0.114492	0.603718	97.639442	-53.609623	65.627020
36163		0.309981	0.725437	0.114493	0.603775	97.626728	-53.612212	65.640164
36164		0.310041	0.725412	0.114476	0.603778	97.618293	-53.609319	65.641811
36165		0.310024	0.725373	0.114507	0.603827	97.608942	-53.610319	65.655397
36166		0.310004	0.725364	0.114584	0.603833	97.609100	-53.605974	65.663385
36167		0.309981	0.725369	0.114679	0.603821	97.613502	-53.599616	65.668776
36168		0.310020	0.725395	0.114720	0.603763	97.621112	-53.591104	65.660999
36169		0.310054	0.725389	0.114784	0.603740	97.620829	-53.582674	65.663475
36170		0.310116	0.725366	0.114827	0.603728	97.614650	-53.574343	65.667544
36171		0.310154	0.725344	0.114862	0.603727	97.609145	-53.568840	65.672540
36172		0.310221	0.725331	0.114856	0.603710	97.604245	-53.563720	65.670936
36173		0.310215	0.725306	0.114908	0.603733	97.599046	-53.561046	65.680955
36174		0.310161	0.725284	0.115046	0.603762	97.597819	-53.555384	65.698558
36175		0.310117	0.725279	0.115181	0.603764	97.601273	-53.548117	65.710090
36176		0.310053	0.725304	0.115357	0.603734	97.614287	-53.537593	65.717382
36177		0.310023	0.725319	0.115512	0.603701	97.623390	-53.526223	65.723610
36178		0.309994	0.725325	0.115636	0.603686	97.629041	-53.518008	65.730723
36179		0.310013	0.725299	0.115694	0.603695	97.623615	-53.512423	65.739296
36180		0.310028	0.725248	0.115713	0.603746	97.609851	-53.512005	65.753408
36181		0.310035	0.725182	0.115731	0.603818	97.592292	-53.513249	65.771961
36182		0.309998	0.725078	0.115759	0.603956	97.565407	-53.519628	65.804728
36183		0.309992	0.724978	0.115780	0.604075	97.538724	-53.523466	65.833884
36184		0.309990	0.724888	0.115835	0.604173	97.515959	-53.523489	65.861606
36185		0.309957	0.724816	0.115945	0.604256	97.500035	-53.520758	65.889709
36186		0.309881	0.724741	0.116120	0.604352	97.486031	-53.516645	65.925184
36187		0.309854	0.724686	0.116243	0.604408	97.475176	-53.511349	65.948774
36188		0.309882	0.724639	0.116294	0.604439	97.463594	-53.506665	65.962005
36189		0.309902	0.724566	0.116327	0.604511	97.444185	-53.505673	65.982478
36190		0.309975	0.724504	0.116289	0.604555	97.424958	-53.505249	65.992159
36191		0.310012	0.724428	0.116307	0.604624	97.404218	-53.504135	66.011200
36192		0.310016	0.724351	0.116347	0.604706	97.384225	-53.504182	66.034268
36193		0.310019	0.724279	0.116395	0.604781	97.366144	-53.503287	66.056172
36194		0.310017	0.724222	0.116463	0.604838	97.352612	-53.500519	66.075693
36195		0.309989	0.724188	0.116569	0.604872	97.346993	-53.495645	66.092621
36196		0.310000	0.724163	0.116639	0.604883	97.342068	-53.489793	66.102314
36197		0.309956	0.724152	0.116744	0.604899	97.343006	-53.485480	66.114024
36198		0.309991	0.724157	0.116769	0.604869	97.344711	-53.479713	66.111157
36199		0.310006	0.724148	0.116856	0.604856	97.344561	-53.471201	66.117153
36200		0.310060	0.724141	0.116900	0.604828	97.343113	-53.462736	66.117330
36201		0.310103	0.724137	0.116956	0.604800	97.342997	-53.454040	66.118135
36202		0.310168	0.724159	0.116997	0.604732	97.349287	-53.443238	66.109288
36203		0.310175	0.724175	0.117083	0.604693	97.356032	-53.434385	66.108871
36204		0.310254	0.724201	0.117084	0.604622	97.361721	-53.425553	66.096062
36205		0.310260	0.724210	0.117147	0.604595	97.366177	-53.419023	66.096238
36206		0.310323	0.724210	0.117178	0.604557	97.366060	-53.410412	66.093181
36207		0.310397	0.724196	0.117196	0.604532	97.361508	-53.402550	66.092494
36208		0.310512	0.724186	0.117169	0.604491	97.356002	-53.394680	66.085343
36209		0.310572	0.724179	0.117209	0.604460	97.354547	-53.385872	66.084719
36210		0.310705	0.724208	0.117160	0.604367	97.358550	-53.376184	66.064465
36211		0.310707	0.724227	0.117215	0.604332	97.365423	-53.370329	66.061935
36212		0.310710	0.724222	0.117271	0.604325	97.365888	-53.365356	66.065766
36213		0.310747	0.724174	0.117308	0.604357	97.353211	-53.361086	66.078293
36214		0.310838	0.724160	0.117292	0.604329	97.347546	-53.354651	66.074346
36215		0.310784	0.724120	0.117392	0.604386	97.340647	-53.353111	66.094464
36216		0.310696	0.724098	0.117504	0.604436	97.339482	-53.352794	66.112891
36217		0.310599	0.724082	0.117625	0.604482	97.340339	-53.352203	66.130860
36218		0.310610	0.724076	0.117645	0.604479	97.339070	-53.349678	66.132746
36219		0.310597	0.724049	0.117683	0.604512	97.333048	-53.349147	66.143136
36220		0.310584	0.724023	0.117691	0.604548	97.326459	-53.350961	66.151638
36221		0.310602	0.724012	0.117695	0.604550	97.323505	-53.349391	66.153310
36222		0.310546	0.724023	0.117721	0.604560	97.328103	-53.351794	66.155875
36223		0.310526	0.724027	0.117763	0.604558	97.330734	-53.349868	66.158499
36224		0.310556	0.724028	0.117734	0.604548	97.329627	-53.349557	66.154590
36225		0.310576	0.724023	0.117731	0.604543	97.327935	-53.348192	66.154106
36226		0.310546	0.724013	0.117737	0.604570	97.325720	-53.351002	66.159564
36227		0.310524	0.724004	0.117719	0.604595	97.323282	-53.354981	66.162575
36228		0.310597	0.724042	0.117610	0.604534	97.328966	-53.355746	66.141227
36229		0.310509	0.724063	0.117614	0.604552	97.336266	-53.362525	66.142182
36230		0.310500	0.724070	0.117579	0.604555	97.337330	-53.366071	66.139099
36231		0.310486	0.724085	0.117575	0.604546	97.341470	-53.367075	66.135836
36232		0.310516	0.724099	0.117536	0.604521	97.343564	-53.366921	66.127795
36233		0.310526	0.724114	0.117545	0.604496	97.347748	-53.364384	66.123454
36234		0.310464	0.724126	0.117615	0.604501	97.354051	-53.363542	66.128461
36235		0.310428	0.724158	0.117678	0.604467	97.365486	-53.359860	66.125311
36236		0.310439	0.724200	0.117675	0.604413	97.376548	-53.356969	66.112969
36237		0.310448	0.724188	0.117672	0.604423	97.372990	-53.356935	66.115449
36238		0.310515	0.724159	0.117606	0.604436	97.362063	-53.357889	66.115026
36239		0.310575	0.724119	0.117544	0.604465	97.348318	-53.359586	66.118242
36240		0.310594	0.724097	0.117524	0.604486	97.341492	-53.360692	66.121823
36241		0.310591	0.724078	0.117560	0.604503	97.337335	-53.358831	66.129237
36242		0.310614	0.724084	0.117582	0.604480	97.339280	-53.354509	66.126976
36243		0.310597	0.724078	0.117669	0.604478	97.340747	-53.348749	66.134267
36244		0.310610	0.724065	0.117711	0.604479	97.338198	-53.344581	66.139109
36245		0.310614	0.724042	0.117755	0.604497	97.333130	-53.341614	66.147465
36246		0.310635	0.724029	0.117791	0.604494	97.330319	-53.337081	66.151309
36247		0.310662	0.723993	0.117782	0.604525	97.319985	-53.337109	66.158572
36248		0.310673	0.723941	0.117794	0.604580	97.305986	-53.337752	66.172700
36249		0.310709	0.723886	0.117787	0.604628	97.290288	-53.337683	66.184595
36250		0.310660	0.723833	0.117854	0.604703	97.278835	-53.339129	66.206196
36251		0.310632	0.723793	0.117923	0.604753	97.270441	-53.337823	66.222883
36252		0.310648	0.723767	0.117958	0.604769	97.264236	-53.334615	66.230619
36253		0.310614	0.723736	0.118049	0.604805	97.259286	-53.331462	66.246166
36254		0.310569	0.723716	0.118190	0.604825	97.258722	-53.324452	66.262459
36255		0.310545	0.723693	0.118295	0.604844	97.256151	-53.318710	66.275817
36256		0.310589	0.723685	0.118326	0.604825	97.254231	-53.312344	66.276312
36257		0.310646	0.723667	0.118345	0.604814	97.249014	-53.306287	66.277981
36258		0.310708	0.723623	0.118348	0.604833	97.236336	-53.302315	66.285339
36259		0.310823	0.723574	0.118307	0.604842	97.219780	-53.297508	66.288281
36260		0.310923	0.723531	0.118280	0.604847	97.205658	-53.292699	66.291193
36261		0.310977	0.723465	0.118356	0.604883	97.189285	-53.284250	66.309035
36262		0.310966	0.723417	0.118473	0.604923	97.180011	-53.277486	66.329037
36263		0.310921	0.723385	0.118640	0.604953	97.177267	-53.268914	66.349701
36264		0.310897	0.723340	0.118782	0.604990	97.170126	-53.260996	66.370759
36265		0.310895	0.723285	0.118912	0.605032	97.159138	-53.252725	66.392760
36266		0.310949	0.723238	0.118970	0.605048	97.147481	-53.244851	66.404342
36267		0.311040	0.723173	0.118977	0.605077	97.128745	-53.238894	66.415544
36268		0.311183	0.723132	0.118955	0.605058	97.114625	-53.229481	66.414995
36269		0.311239	0.723087	0.118977	0.605079	97.102209	-53.224640	66.424229
36270		0.311288	0.723023	0.119021	0.605121	97.085552	-53.219252	66.440222
36271		0.311299	0.722969	0.119053	0.605174	97.071618	-53.218272	66.455907
36272		0.311321	0.722911	0.119078	0.605227	97.056327	-53.216831	66.471314
36273		0.311314	0.722831	0.119134	0.605315	97.036741	-53.216541	66.496428
36274		0.311325	0.722774	0.119162	0.605372	97.021920	-53.215928	66.512585
36275		0.311315	0.722689	0.119242	0.605463	97.001584	-53.214157	66.540631
36276		0.311234	0.722635	0.119367	0.605544	96.992272	-53.213500	66.567753
36277		0.311209	0.722606	0.119450	0.605575	96.987454	-53.210053	66.581665
36278		0.311141	0.722586	0.119554	0.605613	96.986400	-53.208341	66.597497
36279		0.311150	0.722580	0.119626	0.605602	96.986956	-53.201567	66.602083
36280		0.311167	0.722567	0.119661	0.605602	96.984181	-53.197663	66.606159
36281		0.311165	0.722574	0.119694	0.605588	96.987285	-53.194579	66.605944
36282		0.311119	0.722570	0.119747	0.605606	96.988503	-53.194511	66.613205
36283		0.311168	0.722550	0.119728	0.605608	96.981700	-53.192502	66.614087
36284		0.311236	0.722519	0.119662	0.605623	96.970343	-53.193364	66.613913
36285		0.311310	0.722499	0.119643	0.605613	96.963100	-53.189082	66.612908
36286		0.311386	0.722466	0.119613	0.605618	96.952201	-53.186137	66.614560
36287		0.311446	0.722481	0.119613	0.605570	96.955268	-53.179713	66.606041
36288		0.311483	0.722530	0.119665	0.605482	96.969542	-53.169376	66.592501
36289		0.311470	0.722633	0.119765	0.605347	97.000694	-53.156893	66.570586
36290		0.311463	0.722762	0.119841	0.605181	97.038055	-53.144569	66.539738
36291		0.311455	0.722897	0.119885	0.605016	97.076088	-53.134854	66.505804
36292		0.311524	0.723008	0.119831	0.604857	97.103472	-53.127494	66.467359
36293		0.311633	0.723080	0.119727	0.604736	97.117840	-53.122764	66.434355
36294		0.311803	0.723170	0.119577	0.604571	97.134596	-53.115392	66.389682
36295		0.311906	0.723251	0.119494	0.604437	97.152361	-53.108811	66.355586
36296		0.312012	0.723346	0.119423	0.604282	97.174055	-53.100319	66.318114
36297		0.312004	0.723460	0.119491	0.604137	97.207038	-53.089451	66.291285
36298		0.311977	0.723590	0.119572	0.603979	97.245104	-53.078452	66.261893
36299		0.311955	0.723711	0.119633	0.603833	97.280104	-53.069146	66.233625
36300		0.311956	0.723835	0.119643	0.603682	97.313842	-53.061947	66.200305
36301		0.311981	0.723911	0.119586	0.603589	97.332178	-53.060680	66.174802
36302		0.312061	0.723992	0.119502	0.603467	97.350070	-53.056394	66.142669
36303		0.312133	0.724056	0.119400	0.603373	97.362940	-53.055210	66.114584
36304		0.312233	0.724099	0.119296	0.603290	97.369800	-53.052645	66.090027
36305		0.312284	0.724133	0.119264	0.603230	97.377055	-53.048815	66.075457
36306		0.312300	0.724191	0.119253	0.603154	97.392151	-53.045351	66.057902
36307		0.312257	0.724228	0.119308	0.603121	97.404396	-53.042775	66.053910
36308		0.312171	0.724283	0.119354	0.603090	97.422238	-53.044082	66.047572
36309		0.312111	0.724289	0.119374	0.603110	97.425402	-53.047702	66.051514
36310		0.312121	0.724279	0.119287	0.603135	97.419736	-53.054862	66.049065
36311		0.312119	0.724247	0.119218	0.603188	97.409136	-53.062697	66.054353
36312		0.312102	0.724222	0.119170	0.603236	97.401075	-53.069739	66.060064
36313		0.312027	0.724208	0.119177	0.603289	97.398893	-53.076803	66.069649
36314		0.311917	0.724207	0.119236	0.603337	97.402164	-53.082154	66.081290
36315		0.311840	0.724215	0.119264	0.603361	97.406390	-53.086517	66.086285
36316		0.311813	0.724197	0.119240	0.603401	97.401371	-53.092024	66.091781
36317		0.311799	0.724179	0.119170	0.603444	97.394583	-53.100377	66.094238
36318		0.311761	0.724142	0.119082	0.603525	97.382519	-53.113451	66.102539
36319		0.311727	0.724115	0.118999	0.603592	97.373034	-53.125295	66.108363
36320		0.311675	0.724092	0.118961	0.603654	97.366474	-53.134627	66.116563
36321		0.311610	0.724059	0.118992	0.603721	97.359679	-53.139704	66.131960
36322		0.311546	0.724015	0.119064	0.603792	97.351168	-53.141680	66.152360
36323		0.311519	0.723981	0.119148	0.603831	97.344825	-53.138691	66.168027
36324		0.311487	0.723959	0.119259	0.603851	97.343015	-53.133110	66.181937
36325		0.311438	0.723958	0.119370	0.603856	97.346828	-53.128212	66.191749
36326		0.311405	0.723953	0.119458	0.603861	97.348774	-53.123903	66.199958
36327		0.311338	0.723969	0.119538	0.603862	97.356574	-53.122527	66.204795
36328		0.311262	0.723985	0.119596	0.603870	97.364073	-53.123767	66.208991
36329		0.311202	0.723997	0.119646	0.603876	97.369715	-53.124442	66.212788
36330		0.311186	0.724008	0.119656	0.603869	97.373416	-53.124557	66.211425
36331		0.311186	0.724021	0.119681	0.603848	97.377724	-53.121675	66.209102
36332		0.311233	0.724031	0.119667	0.603815	97.379217	-53.117947	66.202164
36333		0.311230	0.724060	0.119714	0.603773	97.388436	-53.112794	66.196991
36334		0.311175	0.724099	0.119757	0.603746	97.401140	-53.112220	66.192761
36335		0.311071	0.724128	0.119822	0.603752	97.412723	-53.114904	66.195832
36336		0.310954	0.724149	0.119869	0.603778	97.421743	-53.120786	66.201200
36337		0.310856	0.724141	0.119906	0.603830	97.422486	-53.127180	66.212521
36338		0.310775	0.724104	0.119909	0.603916	97.413835	-53.136402	66.228795
36339		0.310762	0.724044	0.119858	0.604005	97.396177	-53.145102	66.243648
36340		0.310780	0.724019	0.119792	0.604038	97.387177	-53.150337	66.245600
36341		0.310788	0.723995	0.119745	0.604072	97.379151	-53.154948	66.249144
36342		0.310791	0.723977	0.119679	0.604105	97.372118	-53.161240	66.250497
36343		0.310783	0.723961	0.119662	0.604132	97.367402	-53.164275	66.254542
36344		0.310758	0.723957	0.119648	0.604152	97.366266	-53.168009	66.256832
36345		0.310707	0.723938	0.119648	0.604202	97.361809	-53.173856	66.265952
36346		0.310665	0.723910	0.119607	0.604264	97.353868	-53.182741	66.274420
36347		0.310590	0.723870	0.119602	0.604352	97.343924	-53.192294	66.290828
36348		0.310547	0.723829	0.119574	0.604428	97.332840	-53.200764	66.303666
36349		0.310528	0.723779	0.119545	0.604505	97.318550	-53.207608	66.317456
36350		0.310520	0.723757	0.119505	0.604542	97.311576	-53.212855	66.321877
36351		0.310568	0.723731	0.119472	0.604555	97.302771	-53.212551	66.323692
36352		0.310661	0.723729	0.119399	0.604524	97.298471	-53.210233	66.313590
36353		0.310687	0.723742	0.119408	0.604493	97.301846	-53.206345	66.308575
36354		0.310658	0.723778	0.119458	0.604455	97.313669	-53.202933	66.303418
36355		0.310615	0.723815	0.119528	0.604420	97.326446	-53.199119	66.300177
36356		0.310599	0.723849	0.119562	0.604380	97.337004	-53.195908	66.293707
36357		0.310570	0.723851	0.119611	0.604383	97.339510	-53.194262	66.297934
36358		0.310565	0.723837	0.119613	0.604402	97.335853	-53.195287	66.302266
36359		0.310585	0.723833	0.119624	0.604395	97.334693	-53.192673	66.302517
36360		0.310580	0.723819	0.119623	0.604414	97.331101	-53.193926	66.306396
36361		0.310627	0.723815	0.119580	0.604404	97.327744	-53.193456	66.301995
36362		0.310700	0.723843	0.119502	0.604348	97.331712	-53.191955	66.284972
36363		0.310718	0.723881	0.119494	0.604295	97.341433	-53.189003	66.272813
36364		0.310766	0.723939	0.119445	0.604210	97.354893	-53.185843	66.250921
36365		0.310777	0.723981	0.119452	0.604153	97.366263	-53.182100	66.239017
36366		0.310802	0.724029	0.119440	0.604085	97.378489	-53.178447	66.223376
36367		0.310820	0.724067	0.119447	0.604029	97.388692	-53.174228	66.212024
36368		0.310867	0.724113	0.119383	0.603961	97.398507	-53.172919	66.192539
36369		0.310913	0.724151	0.119314	0.603906	97.405772	-53.172734	66.175338
36370		0.310886	0.724180	0.119278	0.603892	97.413099	-53.176804	66.167464
36371		0.310949	0.724216	0.119186	0.603835	97.418808	-53.177138	66.148412
36372		0.311076	0.724258	0.119063	0.603744	97.424271	-53.173799	66.121229
36373		0.311147	0.724301	0.119015	0.603665	97.433303	-53.169017	66.101624
36374		0.311153	0.724320	0.119033	0.603636	97.438800	-53.165969	66.097019
36375		0.311162	0.724356	0.119048	0.603585	97.448879	-53.162010	66.087295
36376		0.311105	0.724390	0.119133	0.603557	97.461587	-53.158288	66.086683
36377		0.311075	0.724418	0.119210	0.603522	97.472245	-53.152880	66.084976
36378		0.311073	0.724438	0.119261	0.603490	97.479079	-53.147703	66.082408
36379		0.311078	0.724441	0.119316	0.603472	97.481691	-53.142252	66.083984
36380		0.311059	0.724439	0.119350	0.603478	97.482440	-53.141238	66.087774
36381		0.311086	0.724431	0.119361	0.603472	97.480102	-53.138155	66.088583
36382		0.311155	0.724401	0.119277	0.603488	97.468378	-53.140418	66.087090
36383		0.311297	0.724325	0.119177	0.603527	97.442298	-53.139661	66.092377
36384		0.311421	0.724304	0.119058	0.603511	97.430999	-53.139353	66.082581
36385		0.311424	0.724317	0.119007	0.603504	97.432843	-53.142784	66.076257
36386		0.311371	0.724324	0.119018	0.603521	97.436062	-53.146507	66.078816
36387		0.311332	0.724339	0.118984	0.603529	97.439686	-53.152321	66.075807
36388		0.311282	0.724323	0.118953	0.603580	97.435240	-53.160506	66.082326
36389		0.311295	0.724290	0.118899	0.603625	97.424326	-53.165712	66.087736
36390		0.311359	0.724261	0.118806	0.603644	97.412723	-53.169184	66.085921
36391		0.311384	0.724214	0.118738	0.603701	97.397485	-53.175132	66.093379
36392		0.311401	0.724192	0.118657	0.603735	97.388587	-53.181675	66.094188
36393		0.311407	0.724162	0.118596	0.603780	97.378576	-53.187983	66.098662
36394		0.311351	0.724116	0.118566	0.603869	97.366268	-53.198151	66.113818
36395		0.311409	0.724086	0.118435	0.603901	97.353097	-53.205602	66.110988
36396		0.311434	0.724058	0.118351	0.603939	97.342364	-53.211941	66.112603
36397		0.311478	0.724062	0.118262	0.603928	97.340183	-53.215321	66.103524
36398		0.311448	0.724084	0.118236	0.603923	97.345638	-53.219308	66.098526
36399		0.311423	0.724118	0.118267	0.603889	97.356345	-53.217264	66.092653
36400		0.311399	0.724148	0.118290	0.603860	97.365655	-53.215986	66.087328
36401		0.311449	0.724134	0.118278	0.603854	97.360600	-53.212956	66.086832
36402		0.311544	0.724086	0.118220	0.603874	97.344152	-53.211553	66.089940
36403		0.311688	0.724021	0.118149	0.603892	97.322026	-53.207429	66.093365
36404		0.311845	0.723987	0.118085	0.603864	97.308480	-53.199937	66.087556
36405		0.311936	0.723950	0.118120	0.603855	97.297934	-53.190278	66.092728
36406		0.312006	0.723932	0.118200	0.603823	97.294639	-53.177522	66.096327
36407		0.312047	0.723955	0.118336	0.603748	97.304365	-53.160675	66.093955
36408		0.312111	0.723978	0.118462	0.603663	97.313436	-53.142641	66.089343
36409		0.312204	0.723980	0.118568	0.603592	97.315540	-53.124588	66.087465
36410		0.312318	0.723952	0.118613	0.603558	97.307615	-53.111318	66.088841
36411		0.312469	0.723889	0.118603	0.603557	97.287822	-53.101245	66.094224
36412		0.312637	0.723804	0.118548	0.603583	97.260481	-53.094392	66.101956
36413		0.312751	0.723727	0.118510	0.603623	97.236827	-53.090862	66.112296
36414		0.312753	0.723638	0.118571	0.603717	97.214484	-53.089875	66.139656
36415		0.312772	0.723585	0.118639	0.603757	97.202193	-53.084868	66.156022
36416		0.312727	0.723546	0.118748	0.603805	97.195789	-53.081515	66.175534
36417		0.312676	0.723539	0.118852	0.603820	97.197829	-53.077658	66.186703
36418		0.312587	0.723552	0.118954	0.603830	97.206043	-53.076562	66.194934
36419		0.312554	0.723564	0.118973	0.603830	97.210216	-53.077488	66.195288
36420		0.312554	0.723576	0.118888	0.603832	97.210939	-53.084217	66.187467
36421		0.312578	0.723566	0.118740	0.603861	97.203069	-53.095307	66.181127
36422		0.312647	0.723563	0.118498	0.603877	97.193666	-53.110002	66.164405
36423		0.312652	0.723563	0.118290	0.603915	97.187288	-53.127571	66.153261
36424		0.312653	0.723593	0.118095	0.603916	97.189412	-53.142848	66.134924
36425		0.312602	0.723637	0.117991	0.603910	97.198791	-53.154507	66.121484
36426		0.312539	0.723686	0.117915	0.603899	97.210620	-53.164483	66.109059
36427		0.312524	0.723737	0.117809	0.603866	97.221392	-53.172550	66.090792
36428		0.312563	0.723801	0.117682	0.603794	97.234206	-53.176663	66.063874
36429		0.312569	0.723861	0.117551	0.603744	97.246441	-53.184403	66.040248
36430		0.312562	0.723934	0.117459	0.603679	97.263421	-53.189415	66.016076
36431		0.312547	0.724006	0.117343	0.603623	97.279642	-53.197301	65.991601
36432		0.312522	0.724083	0.117237	0.603564	97.297588	-53.204916	65.967039
36433		0.312522	0.724132	0.117138	0.603524	97.307810	-53.210967	65.948492
36434		0.312550	0.724172	0.117012	0.603487	97.314310	-53.217291	65.929100
36435		0.312607	0.724189	0.116899	0.603458	97.314739	-53.220832	65.914132
36436		0.312639	0.724223	0.116803	0.603420	97.320422	-53.224340	65.897579
36437		0.312601	0.724265	0.116797	0.603390	97.332221	-53.226390	65.888622
36438		0.312545	0.724315	0.116799	0.603358	97.346832	-53.228898	65.879184
36439		0.312489	0.724359	0.116838	0.603327	97.360919	-53.228521	65.873277
36440		0.312427	0.724402	0.116864	0.603303	97.374148	-53.229957	65.867659
36441		0.312462	0.724431	0.116795	0.603263	97.379542	-53.231114	65.853439
36442		0.312603	0.724453	0.116608	0.603199	97.377492	-53.232917	65.827132
36443		0.312729	0.724447	0.116449	0.603172	97.368993	-53.235158	65.811198
36444		0.312783	0.724461	0.116334	0.603150	97.368550	-53.239341	65.797322
36445		0.312782	0.724510	0.116280	0.603102	97.380248	-53.241585	65.781163
36446		0.312736	0.724531	0.116298	0.603096	97.387273	-53.243202	65.779670
36447		0.312705	0.724549	0.116316	0.603088	97.392962	-53.243688	65.778253
36448		0.312665	0.724554	0.116357	0.603094	97.396397	-53.243651	65.781794
36449		0.312677	0.724548	0.116353	0.603097	97.394366	-53.243213	65.782470
36450		0.312731	0.724542	0.116294	0.603087	97.390076	-53.243475	65.777018
36451		0.312786	0.724533	0.116221	0.603083	97.384544	-53.245094	65.771589
36452		0.312815	0.724544	0.116156	0.603068	97.385153	-53.247491	65.763005
36453		0.312852	0.724558	0.116089	0.603044	97.386367	-53.249034	65.752835
36454		0.312877	0.724578	0.116011	0.603022	97.389059	-53.252415	65.741442
36455		0.312925	0.724600	0.115951	0.602983	97.392359	-53.251999	65.728727
36456		0.312992	0.724612	0.115878	0.602948	97.392315	-53.251450	65.716702
36457		0.313047	0.724609	0.115842	0.602930	97.389497	-53.249480	65.711533
36458		0.313075	0.724620	0.115832	0.602904	97.391744	-53.247089	65.705948
36459		0.313024	0.724654	0.115887	0.602878	97.403646	-53.245389	65.703139
36460		0.312965	0.724687	0.115949	0.602858	97.415352	-53.243916	65.701814
36461		0.312931	0.724699	0.115976	0.602856	97.419776	-53.244195	65.702546
36462		0.312922	0.724707	0.115960	0.602854	97.421778	-53.246014	65.700102
36463		0.312973	0.724713	0.115893	0.602832	97.420660	-53.246618	65.691030
36464		0.313079	0.724708	0.115744	0.602813	97.412926	-53.249916	65.676916
36465		0.313152	0.724702	0.115654	0.602799	97.407582	-53.251010	65.668290
36466		0.313192	0.724692	0.115579	0.602805	97.401921	-53.254306	65.664151
36467		0.313199	0.724695	0.115567	0.602800	97.402312	-53.254544	65.662130
36468		0.313124	0.724709	0.115627	0.602810	97.409159	-53.255688	65.667039
36469		0.313058	0.724725	0.115684	0.602815	97.416209	-53.256171	65.670671
36470		0.313030	0.724718	0.115706	0.602833	97.415423	-53.257187	65.675749
36471		0.312983	0.724710	0.115720	0.602865	97.414514	-53.260916	65.682114
36472		0.313003	0.724699	0.115667	0.602878	97.409509	-53.264142	65.680941
36473		0.313013	0.724681	0.115611	0.602905	97.402771	-53.268992	65.682299
36474		0.313071	0.724663	0.115495	0.602918	97.393609	-53.274433	65.676677
36475		0.313126	0.724648	0.115377	0.602931	97.385117	-53.280286	65.670585
36476		0.313243	0.724619	0.115233	0.602933	97.371011	-53.283243	65.662254
36477		0.313307	0.724563	0.115156	0.602981	97.352702	-53.286663	65.668563
36478		0.313337	0.724525	0.115137	0.603015	97.341188	-53.287502	65.675935
36479		0.313296	0.724492	0.115191	0.603065	97.334638	-53.288403	65.690652
36480		0.313213	0.724461	0.115292	0.603126	97.330586	-53.289013	65.710635
36481		0.313128	0.724426	0.115385	0.603195	97.325052	-53.290807	65.731608
36482		0.313011	0.724381	0.115504	0.603287	97.318339	-53.293822	65.758850
36483		0.312956	0.724308	0.115561	0.603392	97.301232	-53.297707	65.785828
36484		0.312934	0.724228	0.115568	0.603498	97.280078	-53.303299	65.809687
36485		0.312944	0.724141	0.115564	0.603598	97.256208	-53.307194	65.832620
36486		0.312921	0.724058	0.115570	0.603708	97.234273	-53.312969	65.857276
36487		0.312914	0.723994	0.115542	0.603794	97.216167	-53.319318	65.873878
36488		0.312878	0.723932	0.115534	0.603889	97.199701	-53.326634	65.893177
36489		0.312817	0.723884	0.115528	0.603979	97.187447	-53.335228	65.910658
36490		0.312756	0.723844	0.115496	0.604064	97.176624	-53.345791	65.924486
36491		0.312692	0.723785	0.115470	0.604174	97.160590	-53.357130	65.944302
36492		0.312624	0.723736	0.115452	0.604271	97.147994	-53.367493	65.961723
36493		0.312574	0.723669	0.115418	0.604384	97.129360	-53.378517	65.982263
36494		0.312563	0.723615	0.115326	0.604472	97.112234	-53.390269	65.993059
36495		0.312515	0.723553	0.115299	0.604576	97.095335	-53.400229	66.012261
36496		0.312438	0.723503	0.115265	0.604682	97.081897	-53.412901	66.030064
36497		0.312365	0.723468	0.115252	0.604764	97.073166	-53.422635	66.044365
36498		0.312259	0.723451	0.115256	0.604838	97.070262	-53.433144	66.057288
36499		0.312139	0.723455	0.115293	0.604888	97.074440	-53.440908	66.067009
36500		0.312008	0.723488	0.115319	0.604912	97.086098	-53.449379	66.069302
36501		0.311929	0.723511	0.115346	0.604920	97.094483	-53.453351	66.070252
36502		0.311863	0.723528	0.115354	0.604931	97.100592	-53.458017	66.070768
36503		0.311825	0.723522	0.115329	0.604963	97.098737	-53.464009	66.074000
36504		0.311770	0.723532	0.115320	0.604981	97.102087	-53.469501	66.074896
36505		0.311695	0.723540	0.115310	0.605012	97.105031	-53.477013	66.077940
36506		0.311632	0.723538	0.115286	0.605052	97.104672	-53.485146	66.082108
36507		0.311571	0.723537	0.115254	0.605090	97.104541	-53.493614	66.085064
36508		0.311495	0.723518	0.115254	0.605152	97.100549	-53.501729	66.096118
36509		0.311498	0.723504	0.115183	0.605181	97.094424	-53.508313	66.096197
36510		0.311494	0.723492	0.115159	0.605201	97.090710	-53.511332	66.098210
36511		0.311457	0.723513	0.115139	0.605199	97.096353	-53.515475	66.094237
36512		0.311497	0.723549	0.115061	0.605150	97.103171	-53.516651	66.077331
36513		0.311481	0.723579	0.115032	0.605128	97.110806	-53.519212	66.068762
36514		0.311482	0.723608	0.114976	0.605104	97.116954	-53.522514	66.057764
36515		0.311485	0.723642	0.114908	0.605075	97.124069	-53.526450	66.044781
36516		0.311475	0.723672	0.114855	0.605055	97.130742	-53.530429	66.034601
36517		0.311431	0.723690	0.114790	0.605068	97.134557	-53.539266	66.029456
36518		0.311369	0.723709	0.114751	0.605085	97.139416	-53.547603	66.026944
36519		0.311361	0.723714	0.114694	0.605094	97.139169	-53.553021	66.023179
36520		0.311328	0.723700	0.114684	0.605128	97.135827	-53.557604	66.028759
36521		0.311373	0.723690	0.114626	0.605129	97.130460	-53.558869	66.025315
36522		0.311452	0.723695	0.114514	0.605103	97.127281	-53.560941	66.012143
36523		0.311607	0.723700	0.114315	0.605055	97.120230	-53.563291	65.988754
36524		0.311815	0.723729	0.114027	0.604968	97.116191	-53.567235	65.950128
36525		0.312088	0.723766	0.113662	0.604851	97.111247	-53.571313	65.900347
36526		0.312348	0.723827	0.113294	0.604713	97.112912	-53.575549	65.844742
36527		0.312633	0.723898	0.112881	0.604558	97.115559	-53.580900	65.782060
36528		0.313093	0.723911	0.112311	0.604410	97.095237	-53.586176	65.713839
36529		0.313928	0.723814	0.111455	0.604251	97.030691	-53.586510	65.632432
36530		0.315076	0.723599	0.110311	0.604122	96.920994	-53.588151	65.544566
36531		0.316596	0.723292	0.108843	0.603961	96.772000	-53.587312	65.435552
36532		0.318565	0.722866	0.106978	0.603769	96.573575	-53.584053	65.302720
36533		0.321100	0.722355	0.104646	0.603446	96.332378	-53.571737	65.122752
36534		0.324496	0.721697	0.101562	0.602943	96.021425	-53.549651	64.872057
36535		0.329073	0.720780	0.097401	0.602247	95.600387	-53.520563	64.535141
36536		0.334968	0.719607	0.092115	0.601229	95.073919	-53.474007	64.089620
36537		0.342036	0.718095	0.085794	0.599992	94.430949	-53.418784	63.566335
36538		0.350326	0.716201	0.078483	0.598471	93.669521	-53.346699	62.964910
36539		0.359609	0.713974	0.070375	0.596632	92.819392	-53.258669	62.290659
36540		0.369490	0.711569	0.061983	0.594395	91.943580	-53.139744	61.556993
36541		0.379185	0.709184	0.054062	0.591906	91.116651	-52.991143	60.823250
36542		0.388544	0.707017	0.046752	0.589046	90.390219	-52.806649	60.062852
36543		0.397456	0.705129	0.040326	0.585829	89.780106	-52.571695	59.292824
36544		0.406012	0.703528	0.034799	0.582229	89.281329	-52.276412	58.510576
36545		0.414103	0.702216	0.030364	0.578351	88.890794	-51.915941	57.746158
36546		0.421948	0.701141	0.026809	0.574145	88.585921	-51.489050	56.983509
36547		0.429612	0.700236	0.024042	0.569671	88.344369	-51.000465	56.231841
36548		0.437317	0.699420	0.021841	0.564880	88.139723	-50.450344	55.477006
36549		0.445009	0.698661	0.020197	0.559850	87.962190	-49.846067	54.733495
36550		0.452866	0.697936	0.018931	0.554473	87.803210	-49.185185	53.976420
36551		0.460676	0.697319	0.018206	0.548809	87.680914	-48.470673	53.221630
36552		0.468664	0.696802	0.017799	0.542682	87.590167	-47.697405	52.431947
36553		0.476703	0.696340	0.017755	0.536236	87.519077	-46.876124	51.635399
36554		0.485142	0.695836	0.017761	0.529276	87.442854	-46.000490	50.793372
36555		0.493750	0.695260	0.017943	0.522018	87.354916	-45.085190	49.946135
36556		0.502760	0.694539	0.018131	0.514315	87.239445	-44.122288	49.068921
36557		0.512157	0.693575	0.018282	0.506276	87.075434	-43.122047	48.179095
36558		0.522146	0.692335	0.018283	0.497696	86.858805	-42.071074	47.245285
36559		0.532366	0.690873	0.018405	0.488817	86.604499	-40.982197	46.312447
36560		0.542724	0.689335	0.018806	0.479494	86.346602	-39.840433	45.365565
36561		0.552928	0.687802	0.019613	0.469909	86.101601	-38.661588	44.430850
36562		0.563068	0.686270	0.020771	0.459953	85.868486	-37.438724	43.492281
36563		0.573026	0.684704	0.022305	0.449806	85.639397	-36.185686	42.574285
36564		0.582964	0.683016	0.024122	0.439386	85.397407	-34.896188	41.665317
36565		0.592803	0.681192	0.026199	0.428807	85.139962	-33.582610	40.775597
36566		0.602618	0.679178	0.028514	0.418038	84.857882	-32.240720	39.901697
36567		0.612582	0.676838	0.030777	0.407047	84.524740	-30.883989	39.023482
36568		0.622729	0.674062	0.033176	0.395915	84.125621	-29.499953	38.165212
36569		0.632934	0.670929	0.035707	0.384675	83.676665	-28.097848	37.323736
36570		0.643192	0.667466	0.038387	0.373256	83.185265	-26.672510	36.489499
36571		0.653561	0.663564	0.041184	0.361725	82.634262	-25.228083	35.668310
36572		0.664036	0.659238	0.044131	0.350018	82.029329	-23.758452	34.852561
36573		0.674484	0.654537	0.047222	0.338263	81.379408	-22.278591	34.050285
36574		0.684870	0.649524	0.050505	0.326375	80.697195	-20.781062	33.252574
36575		0.695174	0.644173	0.053962	0.314425	79.978870	-19.272520	32.463576
36576		0.705370	0.638530	0.057628	0.302342	79.233588	-17.746832	31.675557
36577		0.715305	0.632707	0.061468	0.290245	78.477112	-16.221007	30.893874
36578		0.725007	0.626686	0.065466	0.278105	77.706482	-14.693201	30.113694
36579		0.734527	0.620374	0.069603	0.266012	76.906542	-13.167848	29.342559
36580		0.743878	0.613789	0.073890	0.253868	76.080977	-11.637130	28.569755
36581		0.753042	0.606903	0.078377	0.241773	75.226059	-10.103247	27.807282
36582		0.762018	0.599716	0.083088	0.229708	74.342785	-8.562616	27.052729
36583		0.770863	0.592144	0.087979	0.217706	73.417873	-7.018318	26.305462
36584		0.779628	0.584121	0.092977	0.205761	72.440765	-5.474579	25.557863
36585		0.788286	0.575659	0.098029	0.193938	71.411605	-3.941328	24.810153
36586		0.796708	0.566946	0.103184	0.182161	70.357551	-2.414958	24.055338
36587		0.804687	0.558242	0.108533	0.170485	69.315760	-0.898113	23.303278
36588		0.812081	0.549796	0.114078	0.158858	68.318758	0.607532	22.548872
36589		0.818898	0.541609	0.119847	0.147319	67.365370	2.103571	21.798803
36590		0.825127	0.533768	0.125782	0.135784	66.463970	3.590091	21.042394
36591		0.830858	0.526141	0.131870	0.124344	65.594868	5.065032	20.288193
36592		0.836182	0.518648	0.138008	0.112947	64.742989	6.525159	19.524476
36593		0.841289	0.510992	0.144128	0.101720	63.865748	7.963969	18.756653
36594		0.846261	0.503045	0.150206	0.090704	62.944744	9.379331	17.984888
36595		0.851047	0.494870	0.156285	0.079990	61.989870	10.768506	17.220227
36596		0.855446	0.486849	0.162365	0.069484	61.050561	12.130147	16.457218
36597		0.859306	0.479301	0.168392	0.059231	60.166785	13.451480	15.702402
36598		0.862606	0.472339	0.174320	0.049185	59.351394	14.730662	14.952126
36599		0.865405	0.465923	0.180105	0.039391	58.597442	15.963209	14.209897
36600		0.867775	0.459990	0.185704	0.029835	57.894836	17.148585	13.472637
36601		0.869872	0.454308	0.191063	0.020549	57.211469	18.284113	12.737510
36602		0.871772	0.448762	0.196197	0.011563	56.532788	19.371943	12.006948
36603		0.873567	0.443165	0.201187	0.002921	55.837196	20.420824	11.286873
36604		0.875270	0.437502	0.206072	-0.005395	55.123774	21.435751	10.577615
36605		0.876971	0.431625	0.210822	-0.013288	54.373358	22.410523	9.883769
36606		0.878687	0.425508	0.215447	-0.020834	53.581926	23.350299	9.196793
36607		0.880286	0.419421	0.219990	-0.028057	52.787078	24.257828	8.524204
36608		0.881623	0.413680	0.224460	-0.035023	52.031377	25.135122	7.869691
36609		0.882661	0.408432	0.228802	-0.041728	51.333765	25.976100	7.236278
36610		0.883448	0.403643	0.232964	-0.048161	50.688959	26.775894	6.623267
36611		0.884096	0.399121	0.236921	-0.054266	50.071938	27.531753	6.030937
36612		0.884658	0.394767	0.240709	-0.059986	49.472607	28.245558	5.465993
36613		0.885072	0.390732	0.244355	-0.065325	48.913663	28.920297	4.936445
36614		0.885257	0.387191	0.247909	-0.070318	48.421470	29.562910	4.449205
36615		0.885226	0.384155	0.251352	-0.074986	47.997715	30.173439	4.003494
36616		0.885018	0.381559	0.254698	-0.079274	47.636558	30.751846	3.605708
36617		0.884749	0.379180	0.257936	-0.083133	47.309100	31.296099	3.254122
36618		0.884483	0.376905	0.261059	-0.086491	47.002196	31.803199	2.953449
36619		0.884264	0.374675	0.264068	-0.089242	46.711660	32.268363	2.715068
36620		0.884030	0.372649	0.266940	-0.091471	46.457771	32.693069	2.534980
36621		0.883780	0.370924	0.269551	-0.093222	46.250229	33.065916	2.406657
36622		0.883498	0.369548	0.271902	-0.094525	46.095684	33.388516	2.329362
36623		0.883039	0.368837	0.274008	-0.095500	46.036985	33.667222	2.304630
36624		0.882294	0.368999	0.275930	-0.096225	46.104462	33.911883	2.336757
36625		0.881257	0.370063	0.277625	-0.096769	46.299674	34.120752	2.417590
36626		0.880007	0.371849	0.279069	-0.097143	46.596062	34.291929	2.536963
36627		0.878729	0.373955	0.280234	-0.097279	46.937077	34.419959	2.683767
36628		0.877646	0.375896	0.281096	-0.097078	47.254839	34.498736	2.846391
36629		0.876896	0.377378	0.281662	-0.096465	47.508623	34.526321	3.020121
36630		0.876497	0.378321	0.281993	-0.095425	47.688865	34.508899	3.206171
36631		0.876446	0.378753	0.282063	-0.093960	47.798139	34.444079	3.403737
36632		0.876647	0.378880	0.281865	-0.092157	47.863187	34.334537	3.610998
36633		0.876897	0.379150	0.281356	-0.090201	47.941036	34.183075	3.823127
36634		0.877033	0.379939	0.280503	-0.088185	48.081701	33.988828	4.043521
36635		0.877017	0.381326	0.279307	-0.086137	48.295070	33.752470	4.271425
36636		0.876895	0.383191	0.277784	-0.083997	48.565820	33.473329	4.508957
36637		0.876718	0.385357	0.276026	-0.081707	48.873206	33.159127	4.759956
36638		0.876615	0.387567	0.274009	-0.079106	49.183518	32.800696	5.030358
36639		0.876660	0.389640	0.271756	-0.076135	49.472946	32.398545	5.319950
36640		0.876877	0.391533	0.269245	-0.072773	49.734540	31.949793	5.627794
36641		0.877199	0.393359	0.266504	-0.069037	49.984766	31.457602	5.958060
36642		0.877578	0.395215	0.263512	-0.064983	50.234473	30.921884	6.306316
36643		0.877940	0.397259	0.260228	-0.060721	50.501217	30.342846	6.663137
36644		0.878196	0.399625	0.256713	-0.056296	50.804307	29.728066	7.031275
36645		0.878306	0.402339	0.253034	-0.051725	51.149171	29.084840	7.412970
36646		0.878122	0.405683	0.249217	-0.047046	51.574173	28.415245	7.814304
36647		0.877623	0.409693	0.245245	-0.042245	52.083127	27.715355	8.234996
36648		0.876907	0.414167	0.241066	-0.037243	52.646976	26.977043	8.671687
36649		0.876070	0.418888	0.236659	-0.032037	53.234315	26.199620	9.114604
36650		0.875254	0.423587	0.231950	-0.026526	53.807043	25.372621	9.560491
36651		0.874577	0.428021	0.226901	-0.020711	54.330427	24.495008	9.999403
36652		0.874093	0.432074	0.221498	-0.014557	54.789153	23.565581	10.431413
36653		0.873772	0.435788	0.215744	-0.008114	55.188716	22.587517	10.853734
36654		0.873396	0.439555	0.209687	-0.001392	55.584067	21.561694	11.279345
36655		0.872705	0.443842	0.203373	0.005544	56.038800	20.490181	11.715616
36656		0.871615	0.448786	0.196762	0.012732	56.570063	19.364328	12.164811
36657		0.870193	0.454258	0.189752	0.020204	57.157010	18.172960	12.618163
36658		0.868608	0.459924	0.182222	0.028006	57.751739	16.905753	13.063875
36659		0.867128	0.465259	0.174116	0.036142	58.283623	15.564967	13.488518
36660		0.865909	0.469921	0.165473	0.044662	58.710580	14.157837	13.895899
36661		0.864910	0.473913	0.156465	0.053438	59.038959	12.709411	14.287486
36662		0.863905	0.477629	0.147147	0.062337	59.322839	11.226935	14.661816
36663		0.862582	0.481596	0.137599	0.071305	59.634852	9.712228	15.026363
36664		0.860833	0.485975	0.127742	0.080482	59.995592	8.146439	15.390726
36665		0.858854	0.490407	0.117425	0.089899	60.355182	6.518678	15.744375
36666		0.856761	0.494633	0.106565	0.099715	60.679610	4.815986	16.096948
36667		0.854718	0.498311	0.095166	0.109943	60.925563	3.044368	16.450348
36668		0.852900	0.501092	0.083261	0.120565	61.049252	1.214667	16.808098
36669		0.851233	0.503087	0.071101	0.131337	61.071012	-0.635977	17.166814
36670		0.849299	0.504990	0.058951	0.142132	61.087310	-2.488381	17.532563
36671		0.846619	0.507610	0.047194	0.152780	61.211810	-4.312370	17.907174
36672		0.842963	0.511299	0.035780	0.163420	61.489828	-6.130350	18.294297
36673		0.838412	0.515911	0.024647	0.174051	61.902008	-7.947226	18.684721
36674		0.833244	0.520980	0.013465	0.184671	62.384042	-9.786748	19.058548
36675		0.828009	0.525662	0.002015	0.195133	62.822507	-11.642866	19.395967
36676		0.823140	0.529255	-0.009792	0.205512	63.121379	-13.512387	19.712570
36677		0.818936	0.531341	-0.021830	0.215738	63.223707	-15.367945	20.022895
36678		0.815267	0.532124	-0.033840	0.225916	63.154932	-17.193955	20.358809
36679		0.811669	0.532427	-0.045354	0.235920	63.029958	-18.956203	20.724474
36680		0.807510	0.533257	-0.055971	0.245830	62.988187	-20.644990	21.129376
36681		0.802456	0.535170	-0.065668	0.255628	63.108272	-22.271773	21.554160
36682		0.796448	0.538222	-0.074697	0.265348	63.399567	-23.867027	21.979156
36683		0.789664	0.542124	-0.083253	0.274959	63.824389	-25.442589	22.391091
36684		0.782369	0.546428	-0.091524	0.284496	64.320292	-27.008586	22.792123
36685		0.774926	0.550613	-0.099664	0.293908	64.812573	-28.562937	23.183371
36686		0.767699	0.554105	-0.107939	0.303240	65.213844	-30.118009	23.576620
36687		0.761068	0.556445	-0.116340	0.312425	65.450842	-31.653506	23.988947
36688		0.754924	0.557717	-0.124830	0.321652	65.525926	-33.178938	24.448950
36689		0.749097	0.558205	-0.133127	0.330966	65.474333	-34.676600	24.975034
36690		0.743287	0.558319	-0.141006	0.340474	65.350942	-36.142896	25.580872
36691		0.737202	0.558508	-0.148192	0.350201	65.220977	-37.566037	26.268037
36692		0.730588	0.559041	-0.154507	0.360336	65.118958	-38.950396	27.057807
36693		0.723430	0.559994	-0.159872	0.370806	65.056837	-40.286540	27.942716
36694		0.715633	0.561445	-0.164280	0.381655	65.045700	-41.581538	28.924491
36695		0.707197	0.563416	-0.167652	0.392845	65.089521	-42.827780	30.001926
36696		0.698108	0.565880	-0.170047	0.404363	65.185562	-44.032273	31.171248
36697		0.688508	0.568672	-0.171535	0.416107	65.310165	-45.191220	32.426082
36698		0.678570	0.571531	-0.172360	0.428004	65.421155	-46.315339	33.761608
36699		0.668518	0.574310	-0.172725	0.439792	65.502768	-47.399739	35.142759
36700		0.658436	0.576867	-0.172905	0.451431	65.531326	-48.462868	36.560194
36701		0.648571	0.579053	-0.173077	0.462707	65.485946	-49.496814	37.987549
36702		0.639027	0.580811	-0.173481	0.473506	65.359984	-50.511513	39.400870
36703		0.629997	0.582027	-0.174314	0.483698	65.134597	-51.507053	40.781162
36704		0.621527	0.582714	-0.175707	0.493230	64.812516	-52.489036	42.113388
36705		0.613563	0.583049	-0.177480	0.502090	64.426013	-53.444210	43.391465
36706		0.605849	0.583297	-0.179562	0.510361	64.024934	-54.386085	44.606996
36707		0.598388	0.583532	-0.181928	0.518001	63.628877	-55.312386	45.744340
36708		0.591129	0.583784	-0.184665	0.525034	63.245693	-56.236123	46.796526
36709		0.584109	0.584037	-0.187674	0.531503	62.871374	-57.148523	47.774038
36710		0.577367	0.584250	-0.191084	0.537388	62.501454	-58.058541	48.667314
36711		0.571159	0.584213	-0.195072	0.542604	62.097835	-58.962192	49.471022
36712		0.565663	0.583757	-0.199784	0.547119	61.625676	-59.858782	50.189117
36713		0.561043	0.582748	-0.205151	0.550952	61.053214	-60.730585	50.842391
36714		0.557280	0.581173	-0.211201	0.554139	60.372979	-61.581942	51.439659
36715		0.554326	0.579146	-0.217752	0.556684	59.612267	-62.401194	51.976014
36716		0.552004	0.576844	-0.224588	0.558662	58.809730	-63.185041	52.452518
36717		0.550046	0.574466	-0.231354	0.560279	57.997113	-63.926933	52.899273
36718		0.548132	0.572364	-0.237671	0.561661	57.255086	-64.621899	53.306252
36719		0.546136	0.570663	-0.243220	0.562960	56.606785	-65.255459	53.693244
36720		0.544005	0.569376	-0.248024	0.564229	56.054940	-65.834811	54.062479
36721		0.541919	0.568396	-0.252132	0.565402	55.586530	-66.350250	54.402780
36722		0.539955	0.567635	-0.255700	0.566442	55.187318	-66.809087	54.706551
36723		0.538227	0.566997	-0.258819	0.567308	54.841685	-67.210060	54.968868
36724		0.536822	0.566424	-0.261602	0.567935	54.545473	-67.555776	55.174519
36725		0.536002	0.565742	-0.264228	0.568174	54.275777	-67.839813	55.301274
36726		0.535846	0.564836	-0.266920	0.567965	54.009817	-68.074349	55.343174
36727		0.536461	0.563614	-0.269774	0.567248	53.732839	-68.258585	55.294107
36728		0.537704	0.562187	-0.272751	0.566063	53.471177	-68.401253	55.147212
36729		0.539285	0.560831	-0.275472	0.564584	53.281853	-68.495413	54.911998
36730		0.540917	0.559752	-0.277731	0.562985	53.198277	-68.547788	54.606134
36731		0.542559	0.558986	-0.279461	0.561307	53.225041	-68.555834	54.235933
36732		0.544268	0.558434	-0.280750	0.559556	53.330654	-68.521778	53.818565
36733		0.546036	0.558103	-0.281596	0.557736	53.514559	-68.445882	53.355845
36734		0.547897	0.557893	-0.282081	0.555873	53.741996	-68.331817	52.871109
36735		0.549804	0.557800	-0.282253	0.553992	54.004421	-68.187074	52.373738
36736		0.551819	0.557735	-0.282206	0.552076	54.277554	-68.014249	51.872621
36737		0.553964	0.557637	-0.282004	0.550126	54.542219	-67.816811	51.378102
36738		0.556285	0.557450	-0.281729	0.548110	54.786240	-67.597863	50.889480
36739		0.558768	0.557123	-0.281472	0.546046	54.992572	-67.366309	50.417313
36740		0.561386	0.556699	-0.281256	0.543900	55.177450	-67.126142	49.945657
36741		0.564053	0.556221	-0.281056	0.541728	55.345782	-66.882641	49.482071
36742		0.566678	0.555814	-0.280721	0.539576	55.524461	-66.630401	49.024114
36743		0.569148	0.555530	-0.280240	0.537515	55.717883	-66.377790	48.581723
36744		0.571460	0.555369	-0.279625	0.535545	55.926337	-66.126270	48.153965
36745		0.573612	0.555325	-0.278913	0.533659	56.148659	-65.878850	47.739156
36746		0.575624	0.555407	-0.278140	0.531807	56.394048	-65.636476	47.322513
36747		0.577524	0.555562	-0.277341	0.529998	56.647632	-65.400051	46.912383
36748		0.579381	0.555771	-0.276525	0.528177	56.910735	-65.164429	46.498709
36749		0.581195	0.555985	-0.275774	0.526348	57.171022	-64.936602	46.086042
36750		0.583022	0.556204	-0.275098	0.524446	57.436128	-64.712250	45.659217
36751		0.584835	0.556302	-0.274610	0.522575	57.663503	-64.505056	45.254102
36752		0.586626	0.556370	-0.274311	0.520650	57.886835	-64.314082	44.837658
36753		0.588353	0.556409	-0.274198	0.518715	58.102595	-64.143031	44.418602
36754		0.590032	0.556413	-0.274295	0.516749	58.312091	-63.992539	43.991819
36755		0.591671	0.556327	-0.274637	0.514781	58.500094	-63.865586	43.568341
36756		0.593301	0.556204	-0.275231	0.512718	58.690177	-63.758751	43.119949
36757		0.594969	0.555918	-0.276154	0.510594	58.849418	-63.676251	42.666922
36758		0.596736	0.555406	-0.277421	0.508397	58.963904	-63.614961	42.214326
36759		0.598640	0.554683	-0.278996	0.506081	59.042485	-63.568239	41.751343
36760		0.600631	0.553776	-0.280901	0.503655	59.092788	-63.541932	41.274317
36761		0.602694	0.552683	-0.283082	0.501164	59.109313	-63.533377	40.795460
36762		0.604775	0.551470	-0.285460	0.498638	59.104936	-63.540072	40.315469
36763		0.606841	0.550179	-0.287977	0.496101	59.087287	-63.559972	39.836057
36764		0.608893	0.548835	-0.290605	0.493537	59.063840	-63.590107	39.352087
36765		0.610903	0.547447	-0.293284	0.491003	59.030376	-63.628473	38.876884
36766		0.612889	0.546067	-0.295983	0.488439	59.005183	-63.669388	38.392508
36767		0.614876	0.544618	-0.298703	0.485897	58.963455	-63.713011	37.920855
36768		0.616818	0.543148	-0.301437	0.483385	58.916770	-63.761720	37.456728
36769		0.618684	0.541698	-0.304141	0.480928	58.871585	-63.814437	37.001833
36770		0.620425	0.540349	-0.306764	0.478531	58.846725	-63.869794	36.548398
36771		0.622049	0.539070	-0.309273	0.476244	58.828247	-63.925636	36.112975
36772		0.623506	0.537931	-0.311642	0.474078	58.831646	-63.983025	35.689325
36773		0.624817	0.536912	-0.313841	0.472052	58.848717	-64.038314	35.286108
36774		0.626045	0.535928	-0.315930	0.470145	58.860849	-64.092619	34.908297
36775		0.627259	0.534959	-0.317883	0.468311	58.866017	-64.137599	34.551678
36776		0.628497	0.533981	-0.319743	0.466498	58.864509	-64.173476	34.206572
36777		0.629825	0.532929	-0.321515	0.464689	58.840654	-64.196023	33.879772
36778		0.631230	0.531826	-0.323221	0.462858	58.803774	-64.207236	33.561279
36779		0.632711	0.530696	-0.324875	0.460972	58.763654	-64.207511	33.239706
36780		0.634242	0.529546	-0.326451	0.459073	58.717019	-64.197327	32.924501
36781		0.635827	0.528411	-0.327913	0.457142	58.673216	-64.172522	32.608997
36782		0.637399	0.527329	-0.329272	0.455221	58.638038	-64.139419	32.295441
36783		0.638929	0.526312	-0.330473	0.453379	58.605504	-64.097062	31.999412
36784		0.640344	0.525445	-0.331483	0.451648	58.592653	-64.047745	31.716924
36785		0.641616	0.524748	-0.332232	0.450100	58.594483	-63.988913	31.464312
36786		0.642702	0.524277	-0.332699	0.448752	58.622340	-63.921655	31.238139
36787		0.643586	0.524029	-0.332902	0.447623	58.674162	-63.849282	31.041366
36788		0.644276	0.524018	-0.332857	0.446676	58.758091	-63.771257	30.863114
36789		0.644816	0.524122	-0.332639	0.445937	58.842862	-63.693041	30.721916
36790		0.645189	0.524373	-0.332241	0.445399	58.937890	-63.614822	30.611516
36791		0.645451	0.524705	-0.331738	0.445002	59.034963	-63.538132	30.524686
36792		0.645607	0.525105	-0.331160	0.444735	59.133555	-63.465244	30.458742
36793		0.645721	0.525485	-0.330527	0.444592	59.212474	-63.394277	30.424222
36794		0.645787	0.525850	-0.329880	0.444546	59.277591	-63.328193	30.412062
36795		0.645808	0.526197	-0.329204	0.444605	59.327228	-63.265992	30.424748
36796		0.645778	0.526549	-0.328479	0.444768	59.366160	-63.206003	30.460689
36797		0.645706	0.526915	-0.327775	0.444958	59.407843	-63.151357	30.497506
36798		0.645659	0.527230	-0.327087	0.445160	59.435823	-63.097322	30.543237
36799		0.645630	0.527537	-0.326405	0.445339	59.464275	-63.041989	30.585211
36800		0.645624	0.527851	-0.325755	0.445451	59.502395	-62.985773	30.610927
36801		0.645625	0.528182	-0.325093	0.445541	59.545808	-62.927243	30.631292
36802		0.645574	0.528605	-0.324381	0.445631	59.610761	-62.866980	30.641622
36803		0.645486	0.529123	-0.323583	0.445725	59.695193	-62.800873	30.645464
36804		0.645345	0.529727	-0.322736	0.445826	59.798350	-62.733318	30.642183
36805		0.645241	0.530323	-0.321854	0.445906	59.899485	-62.659751	30.639139
36806		0.645102	0.530951	-0.320948	0.446011	60.005241	-62.586790	30.638288
36807		0.644895	0.531640	-0.320000	0.446172	60.119498	-62.515762	30.642394
36808		0.644626	0.532349	-0.319055	0.446391	60.234021	-62.450870	30.654357
36809		0.644309	0.533064	-0.318084	0.446690	60.341991	-62.389315	30.682298
36810		0.643928	0.533760	-0.317167	0.447058	60.442224	-62.339043	30.721591
36811		0.643524	0.534414	-0.316323	0.447458	60.532580	-62.298133	30.767193
36812		0.643143	0.534939	-0.315630	0.447868	60.597193	-62.270531	30.821215
36813		0.642859	0.535307	-0.315044	0.448249	60.629718	-62.246384	30.884350
36814		0.642582	0.535558	-0.314596	0.448659	60.637469	-62.236029	30.958418
36815		0.642347	0.535715	-0.314231	0.449065	60.625468	-62.230836	31.039089
36816		0.642099	0.535828	-0.313946	0.449483	60.605431	-62.234273	31.121915
36817		0.641867	0.535884	-0.313722	0.449904	60.573616	-62.242707	31.208747
36818		0.641607	0.535950	-0.313527	0.450332	60.545365	-62.255599	31.292946
36819		0.641292	0.536065	-0.313345	0.450771	60.529072	-62.273117	31.371278
36820		0.640918	0.536202	-0.313212	0.451231	60.518736	-62.299327	31.446635
36821		0.640564	0.536283	-0.313159	0.451675	60.499442	-62.331317	31.520766
36822		0.640252	0.536287	-0.313258	0.452043	60.474327	-62.372081	31.580189
36823		0.640072	0.536127	-0.313524	0.452303	60.424444	-62.416803	31.630745
36824		0.640028	0.535767	-0.313993	0.452466	60.341404	-62.469193	31.676881
36825		0.640134	0.535222	-0.314623	0.452525	60.227503	-62.523968	31.718414
36826		0.640331	0.534576	-0.315404	0.452467	60.104978	-62.583214	31.741513
36827		0.640651	0.533791	-0.316299	0.452313	59.960700	-62.642590	31.758530
36828		0.641084	0.532880	-0.317304	0.452071	59.796782	-62.702349	31.769450
36829		0.641618	0.531866	-0.318316	0.451795	59.609715	-62.755886	31.789161
36830		0.642194	0.530813	-0.319250	0.451557	59.405680	-62.801171	31.827844
36831		0.642727	0.529852	-0.319992	0.451402	59.208764	-62.834082	31.883793
36832		0.643137	0.529106	-0.320447	0.451370	59.042321	-62.851730	31.953348
36833		0.643336	0.528694	-0.320517	0.451520	58.926991	-62.852094	32.037346
36834		0.643352	0.528595	-0.320231	0.451815	58.862659	-62.835316	32.129238
36835		0.643238	0.528733	-0.319685	0.452204	58.838372	-62.805110	32.223555
36836		0.643008	0.529056	-0.318948	0.452673	58.845700	-62.766780	32.319961
36837		0.642690	0.529577	-0.317975	0.453199	58.887974	-62.713685	32.415710
36838		0.642162	0.530409	-0.316786	0.453807	58.992639	-62.655743	32.497424
36839		0.641366	0.531638	-0.315224	0.454582	59.166992	-62.584855	32.580454
36840		0.640195	0.533372	-0.313245	0.455567	59.432899	-62.504814	32.661165
36841		0.638691	0.535518	-0.310884	0.456779	59.766870	-62.417231	32.753778
36842		0.636948	0.537953	-0.308289	0.458106	60.154921	-62.326397	32.844270
36843		0.635110	0.540490	-0.305589	0.459479	60.561366	-62.233372	32.937277
36844		0.633264	0.543042	-0.302866	0.460820	60.974189	-62.138156	33.024926
36845		0.631534	0.545420	-0.300278	0.462077	61.357271	-62.045893	33.112619
36846		0.629979	0.547560	-0.297919	0.463195	61.702634	-61.959877	33.191981
36847		0.628652	0.549348	-0.295854	0.464202	61.981842	-61.884041	33.279315
36848		0.627614	0.550770	-0.294123	0.465021	62.199004	-61.815492	33.359326
36849		0.626936	0.551744	-0.292780	0.465627	62.337581	-61.753986	33.434476
36850		0.626633	0.552244	-0.291897	0.465998	62.395467	-61.704349	33.498894
36851		0.626735	0.552267	-0.291476	0.466097	62.374904	-61.663622	33.546023
36852		0.627116	0.551981	-0.291387	0.465979	62.308270	-61.629118	33.572030
36853		0.627686	0.551462	-0.291565	0.465714	62.206547	-61.602497	33.583419
36854		0.628328	0.550905	-0.291864	0.465320	62.110632	-61.578169	33.567640
36855		0.628953	0.550385	-0.292221	0.464866	62.031372	-61.557808	33.531418
36856		0.629469	0.550033	-0.292525	0.464393	61.993551	-61.538150	33.472127
36857		0.629804	0.549904	-0.292676	0.463997	61.999019	-61.517769	33.407116
36858		0.629899	0.550069	-0.292645	0.463693	62.062785	-61.497824	33.331577
36859		0.629801	0.550417	-0.292488	0.463510	62.157518	-61.481973	33.261868
36860		0.629564	0.550870	-0.292301	0.463413	62.270263	-61.474554	33.195438
36861		0.629336	0.551257	-0.292173	0.463343	62.366853	-61.473013	33.138622
36862		0.629156	0.551536	-0.292192	0.463244	62.445396	-61.481105	33.080201
36863		0.629124	0.551632	-0.292366	0.463063	62.491399	-61.491936	33.020640
36864		0.629306	0.551464	-0.292777	0.462756	62.491489	-61.507439	32.957153
36865		0.629743	0.551014	-0.293374	0.462320	62.439090	-61.520732	32.895728
36866		0.630410	0.550293	-0.294203	0.461742	62.340205	-61.536805	32.829105
36867		0.631230	0.549431	-0.295168	0.461032	62.222759	-61.551766	32.747721
36868		0.632021	0.548584	-0.296135	0.460336	62.108330	-61.569255	32.666676
36869		0.632643	0.547911	-0.296973	0.459742	62.023993	-61.588334	32.589426
36870		0.633069	0.547460	-0.297665	0.459246	61.981021	-61.608931	32.510037
36871		0.633349	0.547169	-0.298222	0.458846	61.964924	-61.628996	32.435665
36872		0.633520	0.547009	-0.298713	0.458480	61.976137	-61.650406	32.354026
36873		0.633643	0.546914	-0.299158	0.458134	62.000033	-61.671102	32.270183
36874		0.633763	0.546828	-0.299619	0.457769	62.028503	-61.692586	32.180450
36875		0.633959	0.546677	-0.300128	0.457343	62.047966	-61.711986	32.085065
36876		0.634233	0.546429	-0.300775	0.456834	62.056053	-61.736361	31.977586
36877		0.634655	0.546037	-0.301531	0.456219	62.041602	-61.758512	31.862625
36878		0.635228	0.545477	-0.302460	0.455475	62.003504	-61.783201	31.734711
36879		0.635955	0.544774	-0.303537	0.454586	61.948037	-61.807413	31.589226
36880		0.636790	0.544004	-0.304673	0.453577	61.888690	-61.826432	31.426830
36881		0.637673	0.543240	-0.305809	0.452486	61.837846	-61.839607	31.248601
36882		0.638543	0.542531	-0.306883	0.451381	61.799321	-61.847287	31.065014
36883		0.639367	0.541908	-0.307873	0.450288	61.777886	-61.850264	30.877916
36884		0.640082	0.541400	-0.308767	0.449272	61.774847	-61.853297	30.695762
36885		0.640637	0.541051	-0.309575	0.448343	61.801245	-61.860657	30.513300
36886		0.641075	0.540777	-0.310271	0.447566	61.828933	-61.870075	30.356530
36887		0.641440	0.540562	-0.310855	0.446897	61.857694	-61.877268	30.219401
36888		0.641736	0.540388	-0.311359	0.446330	61.884569	-61.885075	30.101400
36889		0.641959	0.540247	-0.311748	0.445909	61.902431	-61.892030	30.014213
36890		0.642076	0.540180	-0.312044	0.445615	61.924305	-61.901188	29.946560
36891		0.642098	0.540184	-0.312241	0.445441	61.949278	-61.911122	29.898567
36892		0.641974	0.540288	-0.312383	0.445394	61.986817	-61.929004	29.863329
36893		0.641716	0.540510	-0.312475	0.445431	62.045346	-61.952782	29.829814
36894		0.641394	0.540723	-0.312591	0.445555	62.095867	-61.985851	29.811130
36895		0.641026	0.540894	-0.312821	0.445715	62.139385	-62.033574	29.795219
36896		0.640671	0.541014	-0.313134	0.445860	62.175595	-62.087653	29.776865
36897		0.640378	0.541042	-0.313535	0.445966	62.196241	-62.145178	29.757480
36898		0.640149	0.540972	-0.314036	0.446027	62.200799	-62.206699	29.736118
36899		0.639978	0.540813	-0.314597	0.446069	62.187870	-62.270059	29.718772
36900		0.639818	0.540614	-0.315189	0.446122	62.165244	-62.336211	29.707109
36901		0.639588	0.540432	-0.315788	0.446250	62.141334	-62.409887	29.705751
36902		0.639274	0.540327	-0.316310	0.446456	62.127007	-62.484034	29.713501
36903		0.638880	0.540236	-0.316782	0.446795	62.102512	-62.563411	29.747664
36904		0.638417	0.540185	-0.317176	0.447240	62.075474	-62.643646	29.801655
36905		0.637886	0.540167	-0.317490	0.447796	62.043182	-62.724645	29.878185
36906		0.637312	0.540168	-0.317776	0.448408	62.009361	-62.807594	29.964794
36907		0.636731	0.540149	-0.318070	0.449049	61.968116	-62.892875	30.059277
36908		0.636224	0.540052	-0.318424	0.449632	61.914426	-62.977374	30.150225
36909		0.635793	0.539856	-0.318850	0.450174	61.841875	-63.062906	30.243111
36910		0.635414	0.539634	-0.319364	0.450612	61.775667	-63.149477	30.313679
36911		0.635077	0.539352	-0.319938	0.451017	61.699744	-63.237977	30.382526
36912		0.634757	0.539055	-0.320539	0.451395	61.622944	-63.326953	30.447110
36913		0.634406	0.538817	-0.321088	0.451783	61.557742	-63.413199	30.509209
36914		0.633934	0.538699	-0.321531	0.452271	61.509545	-63.499997	30.580508
36915		0.633337	0.538714	-0.321872	0.452846	61.482794	-63.587656	30.656651
36916		0.632679	0.538778	-0.322176	0.453473	61.462335	-63.677265	30.738206
36917		0.631975	0.538903	-0.322451	0.454111	61.455045	-63.767224	30.815299
36918		0.631242	0.539010	-0.322762	0.454783	61.442044	-63.863346	30.898462
36919		0.630505	0.539129	-0.323084	0.455434	61.434348	-63.959931	30.975396
36920		0.629779	0.539220	-0.323476	0.456052	61.426149	-64.061102	31.044424
36921		0.629096	0.539247	-0.323935	0.456637	61.407031	-64.164982	31.112225
36922		0.628469	0.539188	-0.324487	0.457177	61.373887	-64.272505	31.177479
36923		0.627894	0.539065	-0.325099	0.457678	61.330323	-64.381282	31.240578
36924		0.627308	0.538932	-0.325787	0.458149	61.290417	-64.496561	31.293743
36925		0.626703	0.538817	-0.326547	0.458570	61.264156	-64.617555	31.328317
36926		0.626078	0.538659	-0.327449	0.458967	61.236507	-64.751993	31.353041
36927		0.625506	0.538444	-0.328475	0.459266	61.209479	-64.891202	31.357575
36928		0.625019	0.538101	-0.329694	0.459457	61.168828	-65.039357	31.345575
36929		0.624693	0.537549	-0.331127	0.459515	61.095743	-65.193466	31.323996
36930		0.624556	0.536768	-0.332820	0.459392	60.991578	-65.354188	31.283163
36931		0.624647	0.535702	-0.334745	0.459114	60.837291	-65.517955	31.239735
36932		0.624996	0.534260	-0.337003	0.458667	60.613731	-65.691978	31.199043
36933		0.625818	0.532175	-0.339822	0.457889	60.276039	-65.879438	31.155013
36934		0.627234	0.529045	-0.343564	0.456785	59.731368	-66.107923	31.149055
36935		0.629321	0.524624	-0.348468	0.455296	58.928578	-66.393180	31.196200
36936		0.631777	0.519150	-0.354404	0.453584	57.906189	-66.746282	31.307200
36937		0.634328	0.512923	-0.361104	0.451820	56.709128	-67.163275	31.496951
36938		0.636776	0.506211	-0.368290	0.450144	55.372749	-67.633997	31.781957
36939		0.638959	0.499228	-0.375680	0.448739	53.910029	-68.145979	32.198639
36940		0.640878	0.492102	-0.383029	0.447660	52.325638	-68.676018	32.767059
36941		0.642520	0.484914	-0.390213	0.446946	50.618409	-69.211868	33.502966
36942		0.643830	0.478020	-0.396919	0.446583	48.873849	-69.726055	34.361988
36943		0.644687	0.471758	-0.402887	0.446659	47.167375	-70.203734	35.315224
36944		0.645122	0.466169	-0.408116	0.447152	45.517996	-70.642056	36.342751
36945		0.645313	0.461176	-0.412708	0.447839	43.949784	-71.034947	37.386314
36946		0.645332	0.456789	-0.416721	0.448591	42.500716	-71.382229	38.393182
36947		0.645321	0.452874	-0.420286	0.449250	41.173147	-71.685466	39.328164
36948		0.645356	0.449291	-0.423595	0.449689	39.960734	-71.956561	40.166444
36949		0.645513	0.445931	-0.426685	0.449888	38.842697	-72.194253	40.914673
36950		0.645691	0.442826	-0.429493	0.450026	37.799419	-72.402953	41.614308
36951		0.645818	0.440016	-0.431961	0.450239	36.820188	-72.584791	42.293800
36952		0.645838	0.437552	-0.434022	0.450630	35.904159	-72.738967	42.970220
36953		0.645768	0.435373	-0.435697	0.451223	35.030670	-72.866112	43.659839
36954		0.645739	0.433267	-0.437163	0.451873	34.164302	-72.969730	44.359297
36955		0.645886	0.431033	-0.438582	0.452424	33.276383	-73.051568	45.059309
36956		0.646275	0.428582	-0.440089	0.452733	32.370003	-73.117786	45.731556
36957		0.646963	0.425880	-0.441719	0.452714	31.455636	-73.167404	46.353248
36958		0.648023	0.422828	-0.443462	0.452353	30.510389	-73.192768	46.936663
36959		0.649467	0.419396	-0.445317	0.451656	29.527533	-73.192574	47.486692
36960		0.651262	0.415699	-0.447135	0.450691	28.538474	-73.158032	47.992682
36961		0.653227	0.411973	-0.448753	0.449659	27.578703	-73.091428	48.464637
36962		0.655381	0.408115	-0.450277	0.448519	26.623197	-72.999066	48.911918
36963		0.657878	0.403916	-0.451869	0.447061	25.653149	-72.881681	49.310339
36964		0.660944	0.399142	-0.453592	0.445076	24.651613	-72.725938	49.633478
36965		0.664617	0.393690	-0.455499	0.442508	23.602258	-72.532365	49.882472
36966		0.668970	0.387563	-0.457480	0.439302	22.533407	-72.287472	50.027246
36967		0.673943	0.380894	-0.459389	0.435524	21.482691	-71.986199	50.052984
36968		0.679512	0.373906	-0.460920	0.431289	20.514973	-71.608810	49.932546
36969		0.685536	0.366894	-0.461717	0.426904	19.670867	-71.138687	49.688766
36970		0.691776	0.360475	-0.461221	0.422822	19.058343	-70.554258	49.322689
36971		0.698061	0.355029	-0.459186	0.419301	18.727568	-69.852319	48.846515
36972		0.704474	0.350581	-0.455575	0.416246	18.686758	-69.025149	48.244977
36973		0.710973	0.347110	-0.450520	0.413599	18.901779	-68.085731	47.543095
36974		0.717590	0.344772	-0.443850	0.411333	19.397861	-67.019256	46.730882
36975		0.724387	0.343580	-0.435433	0.409407	20.159199	-65.807288	45.826355
36976		0.731142	0.344042	-0.424904	0.408071	21.238138	-64.437947	44.857141
36977		0.737639	0.346452	-0.412214	0.407355	22.647295	-62.922226	43.847858
36978		0.743925	0.350780	-0.397273	0.407067	24.364581	-61.242532	42.810152
36979		0.750080	0.356467	-0.380605	0.406757	26.268773	-59.424521	41.770765
36980		0.756344	0.362943	-0.362614	0.405867	28.270268	-57.472627	40.713828
36981		0.762721	0.369792	-0.343837	0.404088	30.286712	-55.422628	39.647902
36982		0.769360	0.376755	-0.324259	0.401245	32.278703	-53.252982	38.577322
36983		0.776045	0.383851	-0.304062	0.397441	34.230732	-50.991043	37.529295
36984		0.782743	0.391042	-0.283186	0.392689	36.136587	-48.628474	36.514265
36985		0.789327	0.398149	-0.261955	0.387066	37.960331	-46.199658	35.552669
36986		0.795952	0.404804	-0.240503	0.380464	39.658452	-43.700131	34.640169
36987		0.802655	0.410628	-0.219280	0.372887	41.178856	-41.166446	33.775728
36988		0.809521	0.415579	-0.198153	0.364287	42.533040	-38.579389	32.941485
36989		0.816368	0.419904	-0.177110	0.354762	43.763814	-35.951920	32.126879
36990		0.823101	0.423791	-0.156002	0.344339	44.906980	-33.275566	31.323075
36991		0.829586	0.427218	-0.135095	0.333198	45.956911	-30.586789	30.537405
36992		0.835868	0.430138	-0.114408	0.321274	46.915399	-27.881460	29.753634
36993		0.841996	0.432308	-0.094240	0.308661	47.748575	-25.186876	28.970056
36994		0.848076	0.433520	-0.074548	0.295416	48.433955	-22.493727	28.188285
36995		0.854091	0.433673	-0.055449	0.281747	48.958380	-19.821433	27.416943
36996		0.860077	0.432755	-0.036793	0.267652	49.327749	-17.154198	26.648122
36997		0.865963	0.430785	-0.018708	0.253344	49.543786	-14.517436	25.886732
36998		0.871709	0.427887	-0.001039	0.238820	49.628456	-11.899060	25.125214
36999		0.877218	0.424206	0.016108	0.224230	49.598552	-9.321768	24.362725
37000		0.882435	0.419937	0.032867	0.209476	49.482667	-6.772501	23.584035
37001		0.887287	0.415209	0.049159	0.194696	49.293857	-4.269150	22.792796
37002		0.891698	0.410198	0.065107	0.179925	49.055823	-1.805031	21.991986
37003		0.895634	0.404996	0.080648	0.165267	48.777434	0.607179	21.185155
37004		0.899091	0.399672	0.095837	0.150706	48.467335	2.973059	20.369487
37005		0.902175	0.394050	0.110547	0.136324	48.099269	5.280368	19.543192
37006		0.904930	0.388090	0.124766	0.122150	47.666735	7.527261	18.704010
37007		0.907351	0.381883	0.138480	0.108181	47.178554	9.710776	17.846866
37008		0.909349	0.375658	0.151809	0.094442	46.664857	11.837660	16.979435
37009		0.910904	0.369502	0.164803	0.081007	46.137245	13.908616	16.111375
37010		0.911951	0.363642	0.177494	0.067867	45.624353	15.924683	15.245937
37011		0.912479	0.358204	0.189841	0.055073	45.141153	17.878416	14.389322
37012		0.912586	0.353106	0.201693	0.042698	44.674162	19.753345	13.541338
37013		0.912579	0.347768	0.212844	0.030881	44.144956	21.530441	12.693594
37014		0.912696	0.341727	0.223179	0.019998	43.496228	23.186238	11.867336
37015		0.913164	0.334461	0.232723	0.010361	42.667067	24.714520	11.081314
37016		0.913966	0.326064	0.241544	0.002243	41.678804	26.107919	10.368724
37017		0.914883	0.317206	0.249697	-0.004624	40.617678	27.375559	9.721586
37018		0.915491	0.309228	0.257184	-0.010534	39.657786	28.516673	9.152825
37019		0.915520	0.303128	0.263987	-0.015733	38.929933	29.531895	8.675156
37020		0.914955	0.299273	0.269969	-0.020260	38.484463	30.407409	8.301032
37021		0.913979	0.297331	0.275055	-0.024104	38.280704	31.139470	8.025930
37022		0.912881	0.296661	0.279108	-0.027182	38.234490	31.716201	7.835623
37023		0.911985	0.296302	0.282184	-0.029339	38.224600	32.146162	7.718042
37024		0.911529	0.295484	0.284384	-0.030482	38.153180	32.443203	7.660101
37025		0.911565	0.293948	0.285837	-0.030689	37.986917	32.626437	7.648372
37026		0.911975	0.291981	0.286596	-0.030176	37.760463	32.708096	7.671206
37027		0.912622	0.289988	0.286666	-0.029169	37.522468	32.694045	7.717852
37028		0.913431	0.288245	0.285980	-0.027842	37.303038	32.581304	7.775449
37029		0.914370	0.286907	0.284466	-0.026295	37.117964	32.364408	7.834851
37030		0.915386	0.286069	0.282189	-0.024529	36.982496	32.049962	7.903269
37031		0.916430	0.285741	0.279296	-0.022402	36.907105	31.648916	8.005309
37032		0.917455	0.285892	0.275948	-0.019880	36.893303	31.178595	8.151083
37033		0.918431	0.286489	0.272257	-0.016880	36.941744	30.648593	8.353803
37034		0.919409	0.287314	0.268252	-0.013333	37.024949	30.061492	8.613811
37035		0.920442	0.288151	0.263952	-0.009259	37.112896	29.422109	8.920983
37036		0.921535	0.288896	0.259403	-0.004721	37.190457	28.739379	9.265826
37037		0.922679	0.289520	0.254642	0.000196	37.252291	28.020736	9.638875
37038		0.923841	0.290073	0.249694	0.005395	37.302585	27.272588	10.031588
37039		0.924893	0.290845	0.244675	0.010763	37.379703	26.508850	10.445157
37040		0.925755	0.292051	0.239632	0.016168	37.508976	25.736746	10.872054
37041		0.926342	0.293854	0.234680	0.021566	37.713237	24.968093	11.315780
37042		0.926658	0.296252	0.229815	0.026932	37.990559	24.202428	11.771723
37043		0.926752	0.299091	0.225023	0.032238	38.319426	23.440596	12.230215
37044		0.926680	0.302217	0.220286	0.037468	38.679324	22.682358	12.683900
37045		0.926520	0.305423	0.215550	0.042605	39.041779	21.925328	13.122757
37046		0.926408	0.308395	0.210701	0.047601	39.363282	21.163430	13.528677
37047		0.926410	0.310967	0.205717	0.052396	39.621898	20.399896	13.891293
37048		0.926508	0.313245	0.200550	0.056917	39.829621	19.631243	14.203835
37049		0.926613	0.315519	0.195209	0.061069	40.022712	18.858336	14.463668
37050		0.926580	0.318239	0.189622	0.064933	40.257523	18.063493	14.685715
37051		0.926348	0.321643	0.183635	0.068583	40.560863	17.223625	14.874635
37052		0.925996	0.325591	0.176944	0.072206	40.909674	16.300819	15.032907
37053		0.925788	0.329395	0.169252	0.075961	41.213642	15.268369	15.151637
37054		0.926005	0.332271	0.160294	0.080101	41.373564	14.101242	15.235657
37055		0.926687	0.333947	0.150185	0.084710	41.363086	12.813120	15.300317
37056		0.927689	0.334638	0.139138	0.089730	41.216628	11.425826	15.358197
37057		0.928628	0.335193	0.127652	0.094878	41.050058	9.990136	15.415599
37058		0.929071	0.336656	0.116139	0.100010	40.999673	8.537987	15.485196
37059		0.928743	0.339665	0.104790	0.105275	41.147034	7.072721	15.591593
37060		0.927636	0.344207	0.093349	0.110902	41.484372	5.557278	15.741072
37061		0.925882	0.349877	0.081526	0.116967	41.956082	3.963344	15.920234
37062		0.923829	0.355726	0.068987	0.123453	42.440402	2.271460	16.104907
37063		0.921745	0.360943	0.055735	0.130385	42.840057	0.494060	16.296518
37064		0.919732	0.365225	0.041809	0.137683	43.119459	-1.355961	16.491992
37065		0.917682	0.368772	0.027700	0.145256	43.311586	-3.227006	16.707375
37066		0.915396	0.372113	0.013838	0.152940	43.487261	-5.076553	16.944349
37067		0.912588	0.376013	0.000511	0.160614	43.744057	-6.883604	17.197419
37068		0.908912	0.381239	-0.012442	0.168469	44.173226	-8.689055	17.469972
37069		0.904245	0.387948	-0.025254	0.176635	44.792309	-10.528353	17.757147
37070		0.898874	0.395333	-0.038419	0.185097	45.498440	-12.440054	18.038181
37071		0.893291	0.402276	-0.052335	0.193561	46.153439	-14.431965	18.276444
37072		0.887905	0.407812	-0.067361	0.201934	46.635067	-16.518365	18.465096
37073		0.883042	0.411400	-0.083134	0.209939	46.880969	-18.636346	18.608417
37074		0.878708	0.413149	-0.099184	0.217583	46.905332	-20.738054	18.737995
37075		0.874814	0.413459	-0.115040	0.224761	46.760111	-22.776387	18.864584
37076		0.870891	0.413326	-0.130480	0.231701	46.569998	-24.759101	19.004625
37077		0.866402	0.413849	-0.145113	0.238785	46.472673	-26.685617	19.187891
37078		0.860988	0.415644	-0.158899	0.246355	46.543662	-28.581742	19.430777
37079		0.854625	0.418731	-0.171767	0.254513	46.784232	-30.446748	19.740053
37080		0.847309	0.422861	-0.184120	0.263356	47.159507	-32.326172	20.112728
37081		0.839244	0.427551	-0.196134	0.272765	47.606603	-34.225425	20.541118
37082		0.830813	0.431958	-0.208356	0.282399	48.016339	-36.169744	20.995338
37083		0.822571	0.435275	-0.221044	0.291639	48.288498	-38.136280	21.428595
37084		0.814873	0.437003	-0.234420	0.300097	48.358323	-40.115573	21.815710
37085		0.807984	0.437113	-0.247974	0.307576	48.216613	-42.036847	22.168386
37086		0.801784	0.436054	-0.261365	0.314146	47.920338	-43.874836	22.496279
37087		0.795954	0.434589	-0.274136	0.320060	47.571305	-45.609559	22.813208
37088		0.789928	0.433607	-0.286026	0.325865	47.285703	-47.262877	23.147670
37089		0.783359	0.433805	-0.296546	0.331997	47.154076	-48.820265	23.529834
37090		0.775904	0.435674	-0.305531	0.338840	47.242628	-50.297619	23.977183
37091		0.767526	0.439279	-0.312818	0.346528	47.559899	-51.687149	24.501985
37092		0.758259	0.444379	-0.318635	0.355025	48.076333	-53.010585	25.098408
37093		0.748370	0.450571	-0.322897	0.364233	48.727409	-54.244599	25.785763
37094		0.738072	0.457368	-0.325992	0.373889	49.449283	-55.408627	26.545337
37095		0.727768	0.464275	-0.328196	0.383523	50.185257	-56.493275	27.334432
37096		0.717712	0.470879	-0.329923	0.392827	50.883414	-57.514533	28.123236
37097		0.708098	0.477003	-0.331372	0.401569	51.527685	-58.472262	28.882015
37098		0.699015	0.482517	-0.332839	0.409602	52.107867	-59.383864	29.584145
37099		0.690554	0.487440	-0.334411	0.416780	52.640582	-60.246563	30.196629
37100		0.682631	0.491743	-0.336301	0.423209	53.115722	-61.087452	30.728952
37101		0.675187	0.495485	-0.338556	0.428948	53.542514	-61.915253	31.180860
37102		0.668152	0.498606	-0.341368	0.434088	53.903244	-62.754090	31.566338
37103		0.661629	0.501033	-0.344689	0.438638	54.175616	-63.592838	31.901329
37104		0.655627	0.502657	-0.348627	0.442661	54.326320	-64.442317	32.210660
37105		0.650220	0.503439	-0.353117	0.446174	54.333921	-65.292087	32.514623
37106		0.645427	0.503377	-0.358189	0.449151	54.194684	-66.142462	32.813172
37107		0.641326	0.502480	-0.363748	0.451555	53.903526	-66.978277	33.111785
37108		0.637932	0.500820	-0.369754	0.453326	53.479640	-67.792999	33.393811
37109		0.635308	0.498477	-0.376064	0.454401	52.943375	-68.567661	33.645238
37110		0.633222	0.495770	-0.382334	0.455042	52.334800	-69.292252	33.893500
37111		0.631374	0.493187	-0.388129	0.455510	51.744361	-69.953077	34.135032
37112		0.629592	0.491051	-0.393081	0.456037	51.223562	-70.533507	34.381344
37113		0.627854	0.489459	-0.397069	0.456690	50.792844	-71.025665	34.629938
37114		0.626101	0.488489	-0.400052	0.457532	50.471215	-71.431510	34.875356
37115		0.624293	0.488198	-0.401963	0.458636	50.268779	-71.749275	35.121072
37116		0.622466	0.488595	-0.402823	0.459940	50.206185	-71.977649	35.340089
37117		0.620695	0.489516	-0.402761	0.461405	50.245950	-72.122381	35.546057
37118		0.619027	0.490894	-0.401901	0.462931	50.392263	-72.189722	35.715366
37119		0.617492	0.492643	-0.400347	0.464465	50.632302	-72.185887	35.845032
37120		0.616129	0.494644	-0.398255	0.465946	50.943594	-72.121039	35.935960
37121		0.615051	0.496709	-0.395809	0.467256	51.290944	-72.001649	35.988395
37122		0.614353	0.498683	-0.393172	0.468296	51.646278	-71.833711	36.000901
37123		0.614017	0.500490	-0.390427	0.469105	51.978907	-71.626587	35.998389
37124		0.613972	0.502178	-0.387509	0.469779	52.284620	-71.381465	36.001173
37125		0.614080	0.503842	-0.384463	0.470360	52.589244	-71.112322	35.996918
37126		0.614303	0.505547	-0.381263	0.470842	52.913333	-70.819461	35.972306
37127		0.614645	0.507197	-0.377998	0.471255	53.223545	-70.511131	35.951436
37128		0.615070	0.508822	-0.374683	0.471595	53.531344	-70.191064	35.925642
37129		0.615537	0.510400	-0.371387	0.471888	53.828973	-69.868920	35.901256
