// General information: 
//  MT Manager version: 2022.2.0 
//  XDA version: 2022.2.0 build 7381 rev 124627 built on 2023-07-19
// Device information: 
//  DeviceId: 10B4215D
//  ProductCode: MTW2-3A7G6
//  Firmware Version: 4.14.0
//  Hardware Version: 3.0.0
// Device settings: 
//  Filter Profile: human(46.1)
//  Option Flags: Orientation Smoother Disabled, Position/Velocity Smoother Disabled, Continuous Zero Rotation Update Disabled, AHS Disabled, ICC Disabled
// Coordinate system: ENU
PacketCounter	SampleTimeFine	Quat_q0	Quat_q1	Quat_q2	Quat_q3	Roll	Pitch	Yaw
35519		0.643304	-0.584364	-0.362392	-0.336675	-83.887857	-59.287284	-1.080485
35520		0.643385	-0.584251	-0.362422	-0.336685	-83.862229	-59.290851	-1.093344
35521		0.643436	-0.584183	-0.362420	-0.336708	-83.843512	-59.292584	-1.106536
35522		0.643497	-0.584104	-0.362398	-0.336752	-83.818891	-59.294219	-1.126812
35523		0.643524	-0.584064	-0.362347	-0.336824	-83.799804	-59.295420	-1.149279
35524		0.643487	-0.584044	-0.362311	-0.336968	-83.787056	-59.304674	-1.173823
35525		0.643488	-0.583986	-0.362314	-0.337063	-83.770546	-59.313232	-1.192311
35526		0.643498	-0.583916	-0.362320	-0.337159	-83.751403	-59.322168	-1.212178
35527		0.643541	-0.583816	-0.362371	-0.337196	-83.731957	-59.330276	-1.222477
35528		0.643588	-0.583740	-0.362390	-0.337217	-83.714254	-59.333834	-1.232919
35529		0.643603	-0.583719	-0.362371	-0.337245	-83.705547	-59.334496	-1.242336
35530		0.643542	-0.583800	-0.362285	-0.337314	-83.713233	-59.332153	-1.252263
35531		0.643477	-0.583912	-0.362176	-0.337362	-83.726083	-59.325889	-1.259276
35532		0.643412	-0.584037	-0.362074	-0.337379	-83.743742	-59.317509	-1.259794
35533		0.643366	-0.584117	-0.362016	-0.337389	-83.756495	-59.312848	-1.258553
35534		0.643334	-0.584158	-0.361982	-0.337417	-83.761790	-59.312123	-1.261310
35535		0.643338	-0.584124	-0.362022	-0.337424	-83.758725	-59.316629	-1.260201
35536		0.643362	-0.584038	-0.362110	-0.337434	-83.748504	-59.325945	-1.259355
35537		0.643358	-0.583957	-0.362201	-0.337482	-83.739643	-59.339087	-1.261264
35538		0.643323	-0.583909	-0.362275	-0.337554	-83.736664	-59.352668	-1.263524
35539		0.643266	-0.583897	-0.362344	-0.337609	-83.742439	-59.364372	-1.259664
35540		0.643224	-0.583916	-0.362384	-0.337613	-83.753284	-59.368724	-1.250358
35541		0.643170	-0.583964	-0.362407	-0.337608	-83.769488	-59.370612	-1.238555
35542		0.643119	-0.584016	-0.362423	-0.337599	-83.785662	-59.371452	-1.227059
35543		0.643093	-0.584045	-0.362455	-0.337563	-83.798606	-59.371568	-1.213379
35544		0.643078	-0.584045	-0.362481	-0.337563	-83.802368	-59.374045	-1.208995
35545		0.643059	-0.584024	-0.362544	-0.337569	-83.805873	-59.380770	-1.201989
35546		0.643032	-0.583995	-0.362582	-0.337628	-83.802893	-59.389739	-1.206258
35547		0.642993	-0.583975	-0.362609	-0.337710	-83.800029	-59.399542	-1.213564
35548		0.642931	-0.583990	-0.362600	-0.337813	-83.800941	-59.407824	-1.224092
35549		0.642845	-0.584058	-0.362544	-0.337918	-83.809166	-59.411761	-1.234614
35550		0.642747	-0.584148	-0.362478	-0.338020	-83.821593	-59.414493	-1.243327
35551		0.642667	-0.584249	-0.362389	-0.338091	-83.834249	-59.412217	-1.250940
35552		0.642609	-0.584327	-0.362325	-0.338136	-83.844663	-59.410017	-1.255012
35553		0.642517	-0.584423	-0.362246	-0.338229	-83.857195	-59.410663	-1.263992
35554		0.642465	-0.584465	-0.362226	-0.338278	-83.864339	-59.413119	-1.266525
35555		0.642401	-0.584500	-0.362202	-0.338364	-83.868746	-59.418488	-1.274602
35556		0.642339	-0.584491	-0.362224	-0.338474	-83.867915	-59.430352	-1.283988
35557		0.642323	-0.584422	-0.362311	-0.338529	-83.861550	-59.443696	-1.285475
35558		0.642314	-0.584339	-0.362396	-0.338599	-83.850738	-59.458134	-1.291077
35559		0.642284	-0.584273	-0.362503	-0.338656	-83.848035	-59.473506	-1.288887
35560		0.642230	-0.584237	-0.362566	-0.338754	-83.846076	-59.488399	-1.294147
35561		0.642164	-0.584234	-0.362611	-0.338836	-83.850621	-59.500133	-1.295677
35562		0.642088	-0.584267	-0.362600	-0.338934	-83.856111	-59.507863	-1.303270
35563		0.641988	-0.584313	-0.362569	-0.339077	-83.861568	-59.517448	-1.316953
35564		0.641887	-0.584395	-0.362506	-0.339196	-83.871892	-59.521946	-1.328348
35565		0.641793	-0.584466	-0.362447	-0.339312	-83.880479	-59.526677	-1.340009
35566		0.641710	-0.584527	-0.362415	-0.339398	-83.890570	-59.531256	-1.345562
35567		0.641650	-0.584576	-0.362385	-0.339460	-83.898003	-59.533898	-1.350045
35568		0.641611	-0.584600	-0.362375	-0.339504	-83.902128	-59.536838	-1.352947
35569		0.641574	-0.584632	-0.362363	-0.339532	-83.908370	-59.538186	-1.353209
35570		0.641534	-0.584666	-0.362342	-0.339570	-83.913968	-59.539610	-1.355528
35571		0.641480	-0.584728	-0.362290	-0.339620	-83.921952	-59.539056	-1.360576
35572		0.641403	-0.584820	-0.362190	-0.339715	-83.930080	-59.537787	-1.374006
35573		0.641314	-0.584918	-0.362078	-0.339834	-83.937612	-59.537513	-1.391310
35574		0.641187	-0.585039	-0.361967	-0.339983	-83.951107	-59.540066	-1.408004
35575		0.641098	-0.585129	-0.361893	-0.340074	-83.962781	-59.541014	-1.416845
35576		0.641044	-0.585168	-0.361875	-0.340129	-83.969440	-59.544212	-1.420062
35577		0.641002	-0.585191	-0.361875	-0.340168	-83.975173	-59.547697	-1.420548
35578		0.640982	-0.585193	-0.361876	-0.340201	-83.975380	-59.550715	-1.423594
35579		0.640985	-0.585179	-0.361922	-0.340172	-83.978692	-59.552666	-1.414851
35580		0.640971	-0.585188	-0.361961	-0.340141	-83.987442	-59.553826	-1.403326
35581		0.640958	-0.585208	-0.361984	-0.340105	-83.996724	-59.552971	-1.392493
35582		0.640899	-0.585275	-0.361991	-0.340095	-84.015597	-59.552846	-1.380060
35583		0.640861	-0.585334	-0.361977	-0.340080	-84.029536	-59.550280	-1.371783
35584		0.640816	-0.585413	-0.361917	-0.340092	-84.041671	-59.545625	-1.371284
35585		0.640767	-0.585492	-0.361845	-0.340124	-84.051463	-59.541580	-1.375220
35586		0.640737	-0.585549	-0.361795	-0.340136	-84.059079	-59.537790	-1.376457
35587		0.640689	-0.585623	-0.361716	-0.340183	-84.066332	-59.534344	-1.383767
35588		0.640628	-0.585699	-0.361650	-0.340237	-84.076086	-59.532773	-1.389352
35589		0.640571	-0.585769	-0.361624	-0.340253	-84.090363	-59.531790	-1.385171
35590		0.640517	-0.585819	-0.361591	-0.340304	-84.097977	-59.533205	-1.388726
35591		0.640544	-0.585769	-0.361649	-0.340277	-84.093719	-59.536411	-1.383409
35592		0.640586	-0.585680	-0.361730	-0.340264	-84.082304	-59.543045	-1.381417
35593		0.640663	-0.585540	-0.361851	-0.340233	-84.063198	-59.551943	-1.378752
35594		0.640725	-0.585398	-0.361970	-0.340233	-84.043022	-59.563327	-1.379807
35595		0.640763	-0.585267	-0.362069	-0.340281	-84.022012	-59.577057	-1.387919
35596		0.640802	-0.585174	-0.362134	-0.340298	-84.006508	-59.584835	-1.392842
35597		0.640764	-0.585146	-0.362123	-0.340429	-83.995598	-59.595386	-1.412912
35598		0.640722	-0.585128	-0.362078	-0.340588	-83.981422	-59.604958	-1.440679
35599		0.640679	-0.585132	-0.362031	-0.340713	-83.973583	-59.611447	-1.461705
35600		0.640598	-0.585174	-0.361967	-0.340859	-83.973067	-59.618270	-1.482004
35601		0.640558	-0.585198	-0.361951	-0.340911	-83.976294	-59.621288	-1.486672
35602		0.640564	-0.585196	-0.361958	-0.340895	-83.977044	-59.620570	-1.484052
35603		0.640597	-0.585174	-0.361992	-0.340835	-83.977185	-59.618619	-1.475033
35604		0.640644	-0.585148	-0.362040	-0.340742	-83.978681	-59.614931	-1.460794
35605		0.640688	-0.585124	-0.362075	-0.340661	-83.978906	-59.611118	-1.449613
35606		0.640706	-0.585121	-0.362109	-0.340599	-83.983890	-59.608950	-1.437621
35607		0.640668	-0.585166	-0.362096	-0.340605	-83.993988	-59.608333	-1.433609
35608		0.640645	-0.585210	-0.362086	-0.340584	-84.004558	-59.605676	-1.426318
35609		0.640585	-0.585277	-0.362046	-0.340624	-84.015882	-59.605294	-1.427322
35610		0.640523	-0.585372	-0.361988	-0.340640	-84.032243	-59.601291	-1.424618
35611		0.640495	-0.585422	-0.361954	-0.340640	-84.040764	-59.598061	-1.422749
35612		0.640520	-0.585440	-0.361955	-0.340562	-84.046932	-59.591268	-1.411364
35613		0.640495	-0.585482	-0.361939	-0.340554	-84.055833	-59.589084	-1.406887
35614		0.640463	-0.585525	-0.361914	-0.340567	-84.063385	-59.587843	-1.406096
35615		0.640405	-0.585586	-0.361894	-0.340592	-84.076361	-59.588206	-1.402803
35616		0.640406	-0.585596	-0.361930	-0.340534	-84.085182	-59.586571	-1.388946
35617		0.640355	-0.585660	-0.361891	-0.340562	-84.096117	-59.585396	-1.388810
35618		0.640352	-0.585692	-0.361888	-0.340516	-84.104816	-59.581066	-1.379649
35619		0.640314	-0.585767	-0.361829	-0.340521	-84.115903	-59.575905	-1.378953
35620		0.640322	-0.585802	-0.361790	-0.340487	-84.120003	-59.569094	-1.376638
35621		0.640286	-0.585860	-0.361729	-0.340521	-84.125971	-59.566192	-1.381897
35622		0.640255	-0.585912	-0.361660	-0.340563	-84.128896	-59.563263	-1.390536
35623		0.640205	-0.585946	-0.361620	-0.340641	-84.130864	-59.566306	-1.400620
35624		0.640172	-0.585963	-0.361595	-0.340700	-84.130988	-59.569148	-1.408421
35625		0.640111	-0.585981	-0.361580	-0.340798	-84.131952	-59.576461	-1.418942
35626		0.640097	-0.585964	-0.361582	-0.340853	-84.126693	-59.581488	-1.427218
35627		0.640066	-0.585976	-0.361558	-0.340914	-84.125731	-59.584602	-1.435795
35628		0.640090	-0.585930	-0.361575	-0.340931	-84.115429	-59.587655	-1.442010
35629		0.640061	-0.585937	-0.361545	-0.341006	-84.111921	-59.591365	-1.453967
35630		0.640100	-0.585856	-0.361595	-0.341019	-84.097419	-59.597305	-1.459148
35631		0.640074	-0.585825	-0.361582	-0.341135	-84.085305	-59.606277	-1.478739
35632		0.640038	-0.585801	-0.361560	-0.341266	-84.073732	-59.615655	-1.500195
35633		0.639977	-0.585779	-0.361535	-0.341445	-84.061383	-59.629142	-1.527078
35634		0.639941	-0.585743	-0.361538	-0.341572	-84.049993	-59.640581	-1.545984
35635		0.639849	-0.585773	-0.361481	-0.341752	-84.046948	-59.651176	-1.570478
35636		0.639760	-0.585829	-0.361437	-0.341870	-84.053395	-59.657411	-1.582382
35637		0.639673	-0.585880	-0.361395	-0.341990	-84.058926	-59.664069	-1.594683
35638		0.639644	-0.585904	-0.361354	-0.342045	-84.058617	-59.665018	-1.603922
35639		0.639591	-0.585932	-0.361340	-0.342111	-84.063012	-59.669573	-1.609048
35640		0.639576	-0.585918	-0.361366	-0.342137	-84.062456	-59.674401	-1.609734
35641		0.639521	-0.585926	-0.361380	-0.342211	-84.065445	-59.682438	-1.614174
35642		0.639477	-0.585933	-0.361395	-0.342265	-84.068842	-59.688787	-1.616187
35643		0.639391	-0.585958	-0.361386	-0.342392	-84.072110	-59.699211	-1.627681
35644		0.639331	-0.585983	-0.361399	-0.342449	-84.079819	-59.705667	-1.627718
35645		0.639237	-0.586032	-0.361349	-0.342594	-84.083159	-59.713707	-1.644548
35646		0.639192	-0.586071	-0.361300	-0.342663	-84.085185	-59.715127	-1.654531
35647		0.639119	-0.586140	-0.361231	-0.342752	-84.092199	-59.716439	-1.665348
35648		0.639055	-0.586215	-0.361163	-0.342814	-84.101321	-59.715468	-1.672175
35649		0.638962	-0.586316	-0.361090	-0.342893	-84.116373	-59.715519	-1.677707
35650		0.638892	-0.586402	-0.361028	-0.342941	-84.129278	-59.713924	-1.680558
35651		0.638826	-0.586478	-0.360974	-0.342991	-84.141025	-59.713255	-1.683448
35652		0.638784	-0.586509	-0.360962	-0.343028	-84.147014	-59.715455	-1.684689
35653		0.638725	-0.586559	-0.360963	-0.343053	-84.159919	-59.717930	-1.679754
35654		0.638700	-0.586585	-0.360966	-0.343050	-84.167420	-59.718044	-1.674903
35655		0.638626	-0.586655	-0.360944	-0.343091	-84.182446	-59.719674	-1.672139
35656		0.638605	-0.586685	-0.360962	-0.343062	-84.193332	-59.718922	-1.661553
35657		0.638544	-0.586749	-0.360934	-0.343095	-84.205893	-59.719285	-1.660015
35658		0.638502	-0.586793	-0.360930	-0.343100	-84.217167	-59.719497	-1.654355
35659		0.638443	-0.586861	-0.360889	-0.343139	-84.228490	-59.719097	-1.655306
35660		0.638428	-0.586889	-0.360871	-0.343137	-84.233476	-59.717182	-1.653905
35661		0.638364	-0.586965	-0.360828	-0.343171	-84.246923	-59.716198	-1.653280
35662		0.638328	-0.587014	-0.360810	-0.343174	-84.257280	-59.714764	-1.649235
35663		0.638277	-0.587064	-0.360772	-0.343223	-84.264348	-59.715534	-1.653333
35664		0.638259	-0.587092	-0.360758	-0.343222	-84.269822	-59.714180	-1.651268
35665		0.638238	-0.587126	-0.360716	-0.343247	-84.272386	-59.712405	-1.656017
35666		0.638248	-0.587136	-0.360720	-0.343210	-84.275970	-59.709453	-1.649944
35667		0.638213	-0.587195	-0.360673	-0.343220	-84.284910	-59.705922	-1.649970
35668		0.638175	-0.587248	-0.360642	-0.343233	-84.294322	-59.704158	-1.648535
35669		0.638136	-0.587322	-0.360600	-0.343225	-84.307937	-59.699442	-1.643602
35670		0.638124	-0.587381	-0.360563	-0.343185	-84.318850	-59.692413	-1.636705
35671		0.638098	-0.587425	-0.360550	-0.343170	-84.329028	-59.689897	-1.630500
35672		0.638123	-0.587421	-0.360587	-0.343092	-84.334639	-59.686573	-1.616312
35673		0.638121	-0.587444	-0.360586	-0.343057	-84.341078	-59.683347	-1.609289
35674		0.638131	-0.587470	-0.360624	-0.342954	-84.355262	-59.678007	-1.587594
35675		0.638070	-0.587556	-0.360589	-0.342957	-84.372982	-59.675037	-1.580884
35676		0.638025	-0.587648	-0.360557	-0.342918	-84.393485	-59.668580	-1.568019
35677		0.637982	-0.587707	-0.360549	-0.342905	-84.408237	-59.666733	-1.559019
35678		0.637995	-0.587711	-0.360564	-0.342859	-84.412116	-59.664141	-1.550930
35679		0.638002	-0.587712	-0.360607	-0.342799	-84.419749	-59.662981	-1.536884
35680		0.637997	-0.587739	-0.360641	-0.342725	-84.433148	-59.659772	-1.518874
35681		0.637938	-0.587832	-0.360626	-0.342691	-84.456371	-59.655572	-1.503604
35682		0.637926	-0.587884	-0.360649	-0.342600	-84.474958	-59.649817	-1.481888
35683		0.637900	-0.587953	-0.360632	-0.342549	-84.491536	-59.643657	-1.468856
35684		0.637895	-0.588014	-0.360602	-0.342485	-84.504365	-59.635212	-1.457876
35685		0.637897	-0.588073	-0.360559	-0.342425	-84.514752	-59.625769	-1.449818
35686		0.637879	-0.588145	-0.360514	-0.342382	-84.527972	-59.617617	-1.442049
35687		0.637873	-0.588204	-0.360434	-0.342377	-84.531992	-59.609433	-1.446181
35688		0.637836	-0.588275	-0.360336	-0.342426	-84.535641	-59.604376	-1.457604
35689		0.637812	-0.588327	-0.360241	-0.342481	-84.534898	-59.600060	-1.471754
35690		0.637795	-0.588364	-0.360141	-0.342555	-84.528931	-59.596901	-1.491256
35691		0.637764	-0.588425	-0.360061	-0.342591	-84.532812	-59.592451	-1.499662
35692		0.637724	-0.588508	-0.359964	-0.342626	-84.540141	-59.586146	-1.507452
35693		0.637688	-0.588613	-0.359874	-0.342606	-84.555122	-59.575815	-1.504893
35694		0.637670	-0.588696	-0.359810	-0.342565	-84.568522	-59.565959	-1.498832
35695		0.637696	-0.588736	-0.359809	-0.342449	-84.580610	-59.555641	-1.480629
35696		0.637755	-0.588738	-0.359847	-0.342296	-84.588997	-59.545682	-1.457433
35697		0.637829	-0.588717	-0.359910	-0.342128	-84.595189	-59.536806	-1.431703
35698		0.637889	-0.588684	-0.359957	-0.342023	-84.594877	-59.531946	-1.417480
35699		0.637947	-0.588677	-0.359978	-0.341905	-84.597679	-59.523461	-1.402480
35700		0.637963	-0.588696	-0.359954	-0.341868	-84.599855	-59.517820	-1.399604
35701		0.637968	-0.588756	-0.359878	-0.341834	-84.605178	-59.507472	-1.399941
35702		0.637983	-0.588811	-0.359795	-0.341800	-84.607923	-59.496423	-1.402429
35703		0.637986	-0.588877	-0.359698	-0.341782	-84.611590	-59.485338	-1.407058
35704		0.638001	-0.588903	-0.359629	-0.341782	-84.608275	-59.478631	-1.415033
35705		0.638081	-0.588882	-0.359612	-0.341688	-84.601497	-59.468575	-1.411157
35706		0.638192	-0.588807	-0.359635	-0.341584	-84.586475	-59.461362	-1.407520
35707		0.638295	-0.588747	-0.359672	-0.341457	-84.577554	-59.453461	-1.396915
35708		0.638398	-0.588662	-0.359707	-0.341374	-84.561333	-59.449311	-1.394884
35709		0.638494	-0.588594	-0.359745	-0.341273	-84.550244	-59.443870	-1.387961
35710		0.638583	-0.588509	-0.359775	-0.341220	-84.532920	-59.441928	-1.390028
35711		0.638662	-0.588446	-0.359777	-0.341178	-84.517179	-59.438239	-1.394686
35712		0.638747	-0.588378	-0.359781	-0.341133	-84.500147	-59.434476	-1.399576
35713		0.638822	-0.588328	-0.359741	-0.341121	-84.481116	-59.429305	-1.412799
35714		0.638886	-0.588280	-0.359699	-0.341127	-84.462257	-59.425669	-1.427875
35715		0.638946	-0.588232	-0.359647	-0.341152	-84.441489	-59.422677	-1.446712
35716		0.639030	-0.588151	-0.359599	-0.341185	-84.412519	-59.420716	-1.470673
35717		0.639117	-0.588070	-0.359574	-0.341188	-84.387154	-59.418359	-1.487738
35718		0.639191	-0.587986	-0.359568	-0.341202	-84.363630	-59.418823	-1.503069
35719		0.639272	-0.587901	-0.359561	-0.341203	-84.340298	-59.417991	-1.516982
35720		0.639356	-0.587808	-0.359563	-0.341204	-84.315521	-59.418050	-1.531190
35721		0.639426	-0.587733	-0.359549	-0.341218	-84.293419	-59.417715	-1.546361
35722		0.639478	-0.587673	-0.359529	-0.341244	-84.274066	-59.417893	-1.561748
35723		0.639520	-0.587617	-0.359505	-0.341287	-84.255225	-59.419332	-1.578774
35724		0.639543	-0.587570	-0.359486	-0.341344	-84.239089	-59.422361	-1.595238
35725		0.639570	-0.587509	-0.359490	-0.341396	-84.222612	-59.427178	-1.609470
35726		0.639606	-0.587430	-0.359513	-0.341439	-84.204286	-59.433167	-1.622174
35727		0.639632	-0.587334	-0.359572	-0.341493	-84.186743	-59.443570	-1.632329
35728		0.639673	-0.587245	-0.359625	-0.341513	-84.170483	-59.450286	-1.638963
35729		0.639710	-0.587165	-0.359687	-0.341517	-84.158110	-59.456566	-1.641036
35730		0.639744	-0.587110	-0.359722	-0.341512	-84.148689	-59.459395	-1.642786
35731		0.639763	-0.587093	-0.359731	-0.341495	-84.145769	-59.458806	-1.641918
35732		0.639775	-0.587092	-0.359727	-0.341478	-84.145307	-59.456894	-1.640923
35733		0.639774	-0.587110	-0.359719	-0.341457	-84.149142	-59.454277	-1.637313
35734		0.639776	-0.587126	-0.359728	-0.341417	-84.155402	-59.451650	-1.629032
35735		0.639749	-0.587167	-0.359729	-0.341396	-84.166708	-59.449900	-1.620428
35736		0.639731	-0.587185	-0.359732	-0.341396	-84.172010	-59.450218	-1.617114
35737		0.639720	-0.587189	-0.359752	-0.341388	-84.176101	-59.451571	-1.612267
35738		0.639715	-0.587210	-0.359742	-0.341373	-84.180263	-59.449264	-1.609264
35739		0.639704	-0.587251	-0.359710	-0.341356	-84.186666	-59.444727	-1.606828
35740		0.639662	-0.587338	-0.359645	-0.341353	-84.200589	-59.438196	-1.604195
35741		0.639610	-0.587469	-0.359555	-0.341321	-84.222672	-59.426890	-1.596323
35742		0.639543	-0.587622	-0.359463	-0.341278	-84.250557	-59.414430	-1.584256
35743		0.639493	-0.587746	-0.359395	-0.341232	-84.274258	-59.403867	-1.572124
35744		0.639487	-0.587821	-0.359366	-0.341143	-84.291243	-59.393245	-1.556303
35745		0.639510	-0.587855	-0.359364	-0.341044	-84.301544	-59.384333	-1.540816
35746		0.639555	-0.587854	-0.359380	-0.340944	-84.305067	-59.376966	-1.527500
35747		0.639589	-0.587880	-0.359358	-0.340860	-84.309965	-59.367408	-1.518397
35748		0.639610	-0.587909	-0.359328	-0.340801	-84.314333	-59.359230	-1.512675
35749		0.639616	-0.587969	-0.359252	-0.340767	-84.319665	-59.348887	-1.512985
35750		0.639631	-0.588019	-0.359189	-0.340717	-84.324535	-59.338313	-1.510842
35751		0.639652	-0.588075	-0.359121	-0.340653	-84.330345	-59.326091	-1.507208
35752		0.639685	-0.588126	-0.359056	-0.340572	-84.335702	-59.312577	-1.501862
35753		0.639707	-0.588189	-0.359009	-0.340471	-84.346945	-59.299133	-1.489731
35754		0.639737	-0.588245	-0.358967	-0.340363	-84.357273	-59.285458	-1.476878
35755		0.639795	-0.588257	-0.358977	-0.340223	-84.363852	-59.273972	-1.458455
35756		0.639888	-0.588246	-0.358977	-0.340067	-84.363372	-59.260046	-1.443476
35757		0.639989	-0.588207	-0.359022	-0.339897	-84.362016	-59.249292	-1.423562
35758		0.640091	-0.588185	-0.359015	-0.339751	-84.357356	-59.235483	-1.412461
35759		0.640161	-0.588202	-0.358987	-0.339617	-84.359861	-59.220936	-1.400332
35760		0.640230	-0.588228	-0.358930	-0.339502	-84.360249	-59.205137	-1.393789
35761		0.640287	-0.588279	-0.358833	-0.339411	-84.360794	-59.187487	-1.393062
35762		0.640350	-0.588326	-0.358716	-0.339333	-84.357491	-59.169155	-1.397515
35763		0.640417	-0.588355	-0.358615	-0.339265	-84.351362	-59.153289	-1.403195
35764		0.640504	-0.588367	-0.358510	-0.339189	-84.340606	-59.136205	-1.411067
35765		0.640603	-0.588357	-0.358424	-0.339111	-84.326607	-59.120815	-1.418938
35766		0.640713	-0.588324	-0.358350	-0.339039	-84.308325	-59.107115	-1.428626
35767		0.640852	-0.588272	-0.358282	-0.338940	-84.286077	-59.091412	-1.437537
35768		0.640986	-0.588224	-0.358214	-0.338839	-84.265345	-59.075636	-1.445271
35769		0.641106	-0.588193	-0.358128	-0.338757	-84.246033	-59.059857	-1.455677
35770		0.641202	-0.588186	-0.358023	-0.338699	-84.229875	-59.044339	-1.468334
35771		0.641274	-0.588209	-0.357910	-0.338642	-84.220529	-59.028297	-1.477915
35772		0.641336	-0.588237	-0.357804	-0.338587	-84.213480	-59.013038	-1.485872
35773		0.641394	-0.588249	-0.357711	-0.338554	-84.204010	-59.000977	-1.495992
35774		0.641477	-0.588234	-0.357657	-0.338482	-84.193137	-58.989203	-1.499882
35775		0.641568	-0.588187	-0.357618	-0.338432	-84.176091	-58.980781	-1.508006
35776		0.641661	-0.588117	-0.357603	-0.338391	-84.156302	-58.975592	-1.516511
35777		0.641750	-0.588043	-0.357598	-0.338358	-84.136606	-58.972009	-1.524790
35778		0.641829	-0.587967	-0.357589	-0.338349	-84.115520	-58.970138	-1.536651
35779		0.641885	-0.587920	-0.357574	-0.338341	-84.101161	-58.967741	-1.545280
35780		0.641946	-0.587876	-0.357518	-0.338361	-84.081342	-58.963945	-1.563277
35781		0.641985	-0.587859	-0.357462	-0.338375	-84.068742	-58.959650	-1.576672
35782		0.642000	-0.587857	-0.357421	-0.338392	-84.062075	-58.957181	-1.585745
35783		0.642018	-0.587861	-0.357365	-0.338411	-84.054823	-58.953273	-1.596562
35784		0.642023	-0.587860	-0.357325	-0.338448	-84.048120	-58.952553	-1.607521
35785		0.642017	-0.587849	-0.357310	-0.338495	-84.042250	-58.955235	-1.616820
35786		0.642025	-0.587811	-0.357315	-0.338539	-84.032472	-58.959651	-1.626184
35787		0.642044	-0.587752	-0.357344	-0.338574	-84.020676	-58.965398	-1.633779
35788		0.642078	-0.587681	-0.357376	-0.338597	-84.006330	-58.970446	-1.641406
35789		0.642119	-0.587624	-0.357397	-0.338598	-83.994252	-58.972483	-1.646499
35790		0.642148	-0.587587	-0.357395	-0.338609	-83.984195	-58.973189	-1.653403
35791		0.642175	-0.587562	-0.357374	-0.338623	-83.974327	-58.972256	-1.662256
35792		0.642183	-0.587570	-0.357320	-0.338652	-83.968131	-58.969525	-1.673357
35793		0.642170	-0.587596	-0.357246	-0.338709	-83.963720	-58.967397	-1.687861
35794		0.642149	-0.587613	-0.357182	-0.338787	-83.957752	-58.967960	-1.704544
35795		0.642118	-0.587624	-0.357127	-0.338883	-83.951476	-58.971182	-1.722309
35796		0.642094	-0.587620	-0.357085	-0.338980	-83.942917	-58.975604	-1.740374
35797		0.642063	-0.587616	-0.357076	-0.339056	-83.939377	-58.981400	-1.750675
35798		0.642067	-0.587564	-0.357089	-0.339124	-83.926515	-58.988618	-1.763540
35799		0.642069	-0.587523	-0.357125	-0.339154	-83.920438	-58.994736	-1.766794
35800		0.642086	-0.587471	-0.357196	-0.339138	-83.917111	-59.000126	-1.760906
35801		0.642086	-0.587459	-0.357261	-0.339089	-83.923944	-59.002197	-1.746501
35802		0.642063	-0.587478	-0.357317	-0.339042	-83.937737	-59.003552	-1.729168
35803		0.642029	-0.587525	-0.357346	-0.338996	-83.954623	-59.002448	-1.712612
35804		0.642011	-0.587567	-0.357371	-0.338930	-83.970334	-58.999166	-1.694988
35805		0.641964	-0.587652	-0.357394	-0.338847	-83.997250	-58.994345	-1.669632
35806		0.641949	-0.587732	-0.357382	-0.338749	-84.018091	-58.984657	-1.649262
35807		0.641907	-0.587840	-0.357347	-0.338677	-84.042731	-58.975120	-1.631182
35808		0.641851	-0.587978	-0.357299	-0.338595	-84.073148	-58.963483	-1.610165
35809		0.641781	-0.588135	-0.357241	-0.338515	-84.107350	-58.951031	-1.588059
35810		0.641711	-0.588288	-0.357203	-0.338423	-84.143458	-58.939469	-1.561915
35811		0.641652	-0.588413	-0.357204	-0.338317	-84.177859	-58.930429	-1.531964
35812		0.641622	-0.588513	-0.357246	-0.338155	-84.212480	-58.920370	-1.492796
35813		0.641612	-0.588604	-0.357293	-0.337965	-84.246039	-58.908389	-1.451030
35814		0.641588	-0.588701	-0.357353	-0.337780	-84.282664	-58.898037	-1.406857
35815		0.641551	-0.588818	-0.357412	-0.337583	-84.324774	-58.886578	-1.358599
35816		0.641534	-0.588906	-0.357485	-0.337385	-84.361026	-58.876245	-1.312334
35817		0.641520	-0.588988	-0.357572	-0.337176	-84.398069	-58.866479	-1.263306
35818		0.641520	-0.589058	-0.357636	-0.336984	-84.428550	-58.855815	-1.221642
35819		0.641509	-0.589144	-0.357694	-0.336795	-84.461906	-58.844815	-1.179219
35820		0.641474	-0.589245	-0.357736	-0.336639	-84.496691	-58.835251	-1.140714
35821		0.641414	-0.589360	-0.357788	-0.336499	-84.536108	-58.828039	-1.100145
35822		0.641393	-0.589437	-0.357821	-0.336368	-84.562855	-58.819790	-1.069390
35823		0.641414	-0.589451	-0.357905	-0.336213	-84.580823	-58.814256	-1.036686
35824		0.641473	-0.589408	-0.358020	-0.336055	-84.588281	-58.811402	-1.006915
35825		0.641530	-0.589358	-0.358135	-0.335911	-84.593833	-58.809687	-0.979563
35826		0.641559	-0.589331	-0.358232	-0.335799	-84.602276	-58.809158	-0.955413
35827		0.641575	-0.589336	-0.358297	-0.335690	-84.614480	-58.805936	-0.932103
35828		0.641570	-0.589338	-0.358333	-0.335658	-84.620530	-58.806577	-0.922359
35829		0.641573	-0.589355	-0.358368	-0.335585	-84.631135	-58.803425	-0.906220
35830		0.641590	-0.589347	-0.358397	-0.335535	-84.633805	-58.801850	-0.897330
35831		0.641629	-0.589310	-0.358454	-0.335465	-84.633271	-58.801164	-0.885681
35832		0.641667	-0.589277	-0.358501	-0.335400	-84.632422	-58.799866	-0.875727
35833		0.641686	-0.589253	-0.358548	-0.335355	-84.633532	-58.800467	-0.866470
35834		0.641703	-0.589237	-0.358583	-0.335313	-84.635012	-58.800142	-0.858471
35835		0.641712	-0.589228	-0.358614	-0.335280	-84.637383	-58.800182	-0.851290
35836		0.641726	-0.589194	-0.358658	-0.335266	-84.635088	-58.803225	-0.847277
35837		0.641745	-0.589161	-0.358713	-0.335228	-84.634944	-58.805192	-0.838860
35838		0.641780	-0.589125	-0.358721	-0.335215	-84.626877	-58.804752	-0.841367
35839		0.641806	-0.589092	-0.358754	-0.335188	-84.623493	-58.805507	-0.837729
35840		0.641811	-0.589085	-0.358765	-0.335180	-84.623073	-58.805844	-0.836268
35841		0.641806	-0.589091	-0.358766	-0.335176	-84.625076	-58.805651	-0.834608
35842		0.641813	-0.589076	-0.358785	-0.335170	-84.624028	-58.806880	-0.832933
35843		0.641846	-0.589030	-0.358824	-0.335146	-84.617754	-58.808523	-0.830661
35844		0.641873	-0.588992	-0.358839	-0.335144	-84.610144	-58.809791	-0.833417
35845		0.641914	-0.588934	-0.358861	-0.335145	-84.598146	-58.811897	-0.838419
35846		0.641922	-0.588893	-0.358884	-0.335175	-84.590332	-58.816863	-0.843732
35847		0.641923	-0.588864	-0.358889	-0.335220	-84.582849	-58.821231	-0.851876
35848		0.641902	-0.588853	-0.358869	-0.335300	-84.576005	-58.826414	-0.865290
35849		0.641849	-0.588874	-0.358835	-0.335402	-84.575124	-58.832195	-0.878800
35850		0.641802	-0.588883	-0.358812	-0.335502	-84.572650	-58.838858	-0.891940
35851		0.641783	-0.588853	-0.358808	-0.335593	-84.563079	-58.846491	-0.906643
35852		0.641760	-0.588814	-0.358805	-0.335711	-84.550601	-58.856579	-0.925383
35853		0.641768	-0.588740	-0.358831	-0.335795	-84.533965	-58.866541	-0.940765
35854		0.641751	-0.588676	-0.358868	-0.335901	-84.521054	-58.879490	-0.955104
35855		0.641718	-0.588609	-0.358902	-0.336045	-84.506363	-58.895504	-0.974539
35856		0.641657	-0.588564	-0.358919	-0.336223	-84.494374	-58.912859	-0.997186
35857		0.641585	-0.588523	-0.358933	-0.336417	-84.482920	-58.931440	-1.021453
35858		0.641525	-0.588469	-0.358958	-0.336600	-84.469618	-58.950087	-1.044740
35859		0.641458	-0.588429	-0.358997	-0.336756	-84.462645	-58.967712	-1.060468
35860		0.641405	-0.588355	-0.359057	-0.336920	-84.449644	-58.988084	-1.078598
35861		0.641359	-0.588288	-0.359135	-0.337044	-84.441360	-59.006522	-1.088536
35862		0.641340	-0.588218	-0.359176	-0.337158	-84.427275	-59.020670	-1.104134
35863		0.641287	-0.588176	-0.359227	-0.337277	-84.421931	-59.036104	-1.114318
35864		0.641204	-0.588162	-0.359243	-0.337442	-84.418201	-59.052313	-1.131198
35865		0.641094	-0.588173	-0.359247	-0.337627	-84.419030	-59.069182	-1.148554
35866		0.640992	-0.588178	-0.359235	-0.337825	-84.415744	-59.085692	-1.170812
35867		0.640873	-0.588207	-0.359208	-0.338029	-84.416593	-59.101247	-1.192729
35868		0.640779	-0.588201	-0.359193	-0.338234	-84.409751	-59.117951	-1.218072
35869		0.640705	-0.588179	-0.359212	-0.338393	-84.404345	-59.133933	-1.234981
35870		0.640625	-0.588187	-0.359195	-0.338547	-84.401840	-59.146065	-1.253092
35871		0.640552	-0.588183	-0.359232	-0.338655	-84.404344	-59.159141	-1.259009
35872		0.640506	-0.588171	-0.359249	-0.338743	-84.402583	-59.168696	-1.267099
35873		0.640439	-0.588202	-0.359255	-0.338809	-84.410631	-59.175240	-1.268568
35874		0.640375	-0.588234	-0.359243	-0.338889	-84.416020	-59.181218	-1.274437
35875		0.640291	-0.588295	-0.359208	-0.338978	-84.425777	-59.185871	-1.280725
35876		0.640198	-0.588346	-0.359176	-0.339099	-84.432905	-59.193578	-1.291410
35877		0.640093	-0.588406	-0.359148	-0.339222	-84.442982	-59.201945	-1.300154
35878		0.640020	-0.588421	-0.359109	-0.339376	-84.439048	-59.211857	-1.320891
35879		0.639952	-0.588418	-0.359096	-0.339522	-84.434113	-59.223586	-1.339254
35880		0.639906	-0.588383	-0.359094	-0.339671	-84.422483	-59.236642	-1.360659
35881		0.639845	-0.588365	-0.359104	-0.339808	-84.417077	-59.249700	-1.376293
35882		0.639772	-0.588370	-0.359103	-0.339937	-84.416578	-59.261136	-1.389256
35883		0.639705	-0.588401	-0.359109	-0.340003	-84.424618	-59.267684	-1.390722
35884		0.639660	-0.588405	-0.359135	-0.340053	-84.428658	-59.274654	-1.391078
35885		0.639663	-0.588393	-0.359183	-0.340017	-84.433112	-59.276226	-1.380716
35886		0.639709	-0.588342	-0.359257	-0.339942	-84.431535	-59.276655	-1.367689
35887		0.639747	-0.588299	-0.359325	-0.339872	-84.431046	-59.277030	-1.355193
35888		0.639789	-0.588251	-0.359369	-0.339829	-84.425365	-59.277437	-1.350322
35889		0.639804	-0.588223	-0.359388	-0.339830	-84.420674	-59.279294	-1.351345
35890		0.639821	-0.588195	-0.359378	-0.339858	-84.411296	-59.280708	-1.360449
35891		0.639788	-0.588226	-0.359301	-0.339948	-84.407033	-59.281272	-1.378413
35892		0.639757	-0.588252	-0.359204	-0.340063	-84.397952	-59.282027	-1.403469
35893		0.639728	-0.588303	-0.359083	-0.340157	-84.392547	-59.278655	-1.426327
35894		0.639699	-0.588338	-0.358981	-0.340258	-84.385507	-59.277691	-1.449239
35895		0.639678	-0.588392	-0.358900	-0.340290	-84.387631	-59.272749	-1.458301
35896		0.639684	-0.588420	-0.358853	-0.340282	-84.388025	-59.267376	-1.461434
35897		0.639708	-0.588426	-0.358853	-0.340226	-84.390581	-59.262379	-1.454504
35898		0.639755	-0.588409	-0.358883	-0.340136	-84.391719	-59.257317	-1.442307
35899		0.639821	-0.588368	-0.358952	-0.340007	-84.393030	-59.252585	-1.422868
35900		0.639886	-0.588316	-0.359022	-0.339902	-84.390870	-59.249908	-1.407632
35901		0.639937	-0.588291	-0.359079	-0.339789	-84.394241	-59.245388	-1.389598
35902		0.639943	-0.588321	-0.359055	-0.339752	-84.399132	-59.239811	-1.385337
35903		0.639904	-0.588389	-0.359006	-0.339758	-84.409937	-59.235662	-1.384035
35904		0.639871	-0.588454	-0.358946	-0.339770	-84.418316	-59.231028	-1.385737
35905		0.639833	-0.588510	-0.358870	-0.339826	-84.421190	-59.228723	-1.396271
35906		0.639824	-0.588534	-0.358822	-0.339854	-84.419980	-59.226436	-1.403955
35907		0.639816	-0.588541	-0.358812	-0.339866	-84.420307	-59.226564	-1.405784
35908		0.639813	-0.588535	-0.358825	-0.339869	-84.420472	-59.228117	-1.404925
35909		0.639805	-0.588564	-0.358807	-0.339852	-84.425862	-59.224907	-1.401682
35910		0.639787	-0.588599	-0.358821	-0.339811	-84.437846	-59.222724	-1.389677
35911		0.639763	-0.588639	-0.358832	-0.339774	-84.450665	-59.220609	-1.377739
35912		0.639760	-0.588654	-0.358865	-0.339719	-84.460087	-59.218901	-1.364140
35913		0.639772	-0.588647	-0.358909	-0.339664	-84.465408	-59.218316	-1.351793
35914		0.639770	-0.588640	-0.358959	-0.339626	-84.471355	-59.219860	-1.340249
35915		0.639756	-0.588631	-0.359017	-0.339607	-84.477808	-59.223757	-1.329686
35916		0.639756	-0.588625	-0.359043	-0.339590	-84.480080	-59.224902	-1.324446
35917		0.639729	-0.588646	-0.359054	-0.339591	-84.487423	-59.226138	-1.319383
35918		0.639729	-0.588646	-0.359054	-0.339591	-84.487412	-59.226076	-1.319378
35919		0.639715	-0.588682	-0.359021	-0.339591	-84.491957	-59.222898	-1.319759
35920		0.639696	-0.588734	-0.358957	-0.339604	-84.496416	-59.217932	-1.324036
35921		0.639655	-0.588814	-0.358894	-0.339611	-84.508056	-59.212431	-1.323701
35922		0.639616	-0.588879	-0.358847	-0.339621	-84.518296	-59.208858	-1.322966
35923		0.639605	-0.588911	-0.358821	-0.339612	-84.523253	-59.205662	-1.321545
35924		0.639606	-0.588908	-0.358841	-0.339595	-84.525533	-59.206100	-1.316883
35925		0.639642	-0.588863	-0.358895	-0.339549	-84.522111	-59.207098	-1.309541
35926		0.639655	-0.588837	-0.358926	-0.339536	-84.520009	-59.208967	-1.306734
35927		0.639649	-0.588838	-0.358937	-0.339533	-84.521971	-59.209830	-1.304282
35928		0.639619	-0.588862	-0.358937	-0.339550	-84.528008	-59.211330	-1.302580
35929		0.639576	-0.588908	-0.358901	-0.339587	-84.534543	-59.211288	-1.305693
35930		0.639538	-0.588949	-0.358843	-0.339650	-84.535880	-59.211235	-1.316133
35931		0.639503	-0.588990	-0.358779	-0.339712	-84.536626	-59.210587	-1.327409
35932		0.639485	-0.588988	-0.358769	-0.339761	-84.533684	-59.213926	-1.334894
35933		0.639457	-0.589011	-0.358725	-0.339820	-84.532735	-59.214914	-1.345088
35934		0.639444	-0.589007	-0.358730	-0.339845	-84.531992	-59.217739	-1.347512
35935		0.639434	-0.589004	-0.358713	-0.339888	-84.528118	-59.219861	-1.355356
35936		0.639421	-0.589017	-0.358700	-0.339903	-84.529422	-59.219924	-1.357204
35937		0.639414	-0.589035	-0.358687	-0.339900	-84.532264	-59.218381	-1.356511
35938		0.639413	-0.589039	-0.358680	-0.339902	-84.532350	-59.217941	-1.357211
35939		0.639395	-0.589041	-0.358692	-0.339920	-84.534265	-59.220669	-1.356892
35940		0.639388	-0.589036	-0.358702	-0.339930	-84.534341	-59.222585	-1.356910
35941		0.639354	-0.589047	-0.358712	-0.339964	-84.538296	-59.226584	-1.357187
35942		0.639354	-0.588999	-0.358765	-0.339991	-84.532859	-59.234158	-1.358275
35943		0.639371	-0.588921	-0.358821	-0.340035	-84.519699	-59.243433	-1.365138
35944		0.639408	-0.588813	-0.358883	-0.340087	-84.499428	-59.253884	-1.376283
35945		0.639428	-0.588721	-0.358924	-0.340166	-84.479987	-59.264685	-1.391521
35946		0.639437	-0.588646	-0.358921	-0.340281	-84.458067	-59.274571	-1.415553
35947		0.639412	-0.588612	-0.358905	-0.340405	-84.444845	-59.283884	-1.436649
35948		0.639371	-0.588616	-0.358833	-0.340551	-84.433344	-59.289911	-1.463827
35949		0.639321	-0.588626	-0.358770	-0.340694	-84.424728	-59.296450	-1.488365
35950		0.639301	-0.588595	-0.358734	-0.340823	-84.409124	-59.304355	-1.513150
35951		0.639309	-0.588541	-0.358721	-0.340914	-84.391789	-59.311114	-1.533082
35952		0.639335	-0.588445	-0.358767	-0.340983	-84.371866	-59.321512	-1.547207
35953		0.639359	-0.588356	-0.358805	-0.341052	-84.352785	-59.331215	-1.561523
35954		0.639384	-0.588266	-0.358859	-0.341104	-84.336084	-59.340914	-1.571388
35955		0.639384	-0.588218	-0.358874	-0.341171	-84.324527	-59.348280	-1.583169
35956		0.639337	-0.588214	-0.358889	-0.341250	-84.324417	-59.356810	-1.589764
35957		0.639288	-0.588235	-0.358880	-0.341314	-84.327886	-59.361631	-1.594830
35958		0.639266	-0.588238	-0.358894	-0.341335	-84.330278	-59.364987	-1.594353
35959		0.639249	-0.588245	-0.358895	-0.341353	-84.332196	-59.366654	-1.594862
35960		0.639233	-0.588266	-0.358890	-0.341355	-84.336674	-59.366315	-1.593053
35961		0.639211	-0.588298	-0.358891	-0.341338	-84.345756	-59.365117	-1.586112
35962		0.639170	-0.588344	-0.358904	-0.341322	-84.360097	-59.364944	-1.575189
35963		0.639102	-0.588417	-0.358938	-0.341287	-84.384946	-59.365402	-1.554677
35964		0.639052	-0.588460	-0.358998	-0.341245	-84.405676	-59.367689	-1.533345
35965		0.639023	-0.588478	-0.359098	-0.341162	-84.426356	-59.370086	-1.504643
35966		0.638989	-0.588485	-0.359198	-0.341109	-84.443489	-59.375253	-1.480867
35967		0.638976	-0.588488	-0.359310	-0.341010	-84.462114	-59.377428	-1.450747
35968		0.638959	-0.588490	-0.359417	-0.340924	-84.479723	-59.380368	-1.422773
35969		0.638904	-0.588542	-0.359490	-0.340862	-84.504992	-59.382093	-1.395859
35970		0.638836	-0.588618	-0.359518	-0.340828	-84.529835	-59.381993	-1.375871
35971		0.638750	-0.588718	-0.359525	-0.340811	-84.557614	-59.381279	-1.357696
35972		0.638651	-0.588849	-0.359499	-0.340796	-84.588887	-59.377718	-1.340747
35973		0.638540	-0.588975	-0.359501	-0.340784	-84.622894	-59.377075	-1.320081
35974		0.638463	-0.589029	-0.359584	-0.340747	-84.649928	-59.382064	-1.293629
35975		0.638403	-0.589053	-0.359681	-0.340718	-84.670945	-59.388933	-1.270271
35976		0.638378	-0.589017	-0.359843	-0.340654	-84.686146	-59.399120	-1.241062
35977		0.638341	-0.589002	-0.359993	-0.340592	-84.705103	-59.408136	-1.210872
35978		0.638293	-0.589011	-0.360119	-0.340531	-84.727070	-59.415201	-1.181214
35979		0.638239	-0.589048	-0.360221	-0.340462	-84.752776	-59.418968	-1.150791
35980		0.638192	-0.589099	-0.360302	-0.340377	-84.779449	-59.419426	-1.120142
35981		0.638151	-0.589160	-0.360354	-0.340292	-84.804817	-59.417098	-1.092700
35982		0.638138	-0.589217	-0.360373	-0.340196	-84.824190	-59.410499	-1.070551
35983		0.638136	-0.589259	-0.360377	-0.340126	-84.836662	-59.404621	-1.056173
35984		0.638128	-0.589291	-0.360369	-0.340092	-84.844584	-59.400905	-1.049093
35985		0.638111	-0.589319	-0.360332	-0.340116	-84.846121	-59.399420	-1.053872
35986		0.638076	-0.589349	-0.360271	-0.340193	-84.844042	-59.400360	-1.068010
35987		0.638032	-0.589398	-0.360180	-0.340289	-84.842182	-59.400102	-1.086477
35988		0.638010	-0.589422	-0.360072	-0.340402	-84.831142	-59.399758	-1.113373
35989		0.637972	-0.589473	-0.359963	-0.340501	-84.827213	-59.397981	-1.135024
35990		0.637945	-0.589522	-0.359867	-0.340568	-84.825131	-59.394654	-1.151211
35991		0.637934	-0.589560	-0.359803	-0.340588	-84.825869	-59.390284	-1.158320
35992		0.637946	-0.589569	-0.359774	-0.340581	-84.823935	-59.386862	-1.161311
35993		0.637974	-0.589548	-0.359787	-0.340552	-84.820524	-59.385490	-1.159377
35994		0.638037	-0.589493	-0.359809	-0.340506	-84.809873	-59.383407	-1.158958
35995		0.638091	-0.589426	-0.359821	-0.340507	-84.793936	-59.384570	-1.167072
35996		0.638121	-0.589393	-0.359799	-0.340532	-84.781364	-59.384641	-1.178645
35997		0.638147	-0.589372	-0.359726	-0.340598	-84.764155	-59.383248	-1.201374
35998		0.638149	-0.589365	-0.359645	-0.340690	-84.749244	-59.383628	-1.226049
35999		0.638149	-0.589370	-0.359536	-0.340798	-84.732831	-59.382500	-1.255620
36000		0.638156	-0.589375	-0.359435	-0.340883	-84.718146	-59.380296	-1.281172
36001		0.638160	-0.589383	-0.359354	-0.340945	-84.707612	-59.377887	-1.300406
36002		0.638172	-0.589383	-0.359275	-0.341007	-84.695067	-59.375730	-1.320686
36003		0.638202	-0.589364	-0.359227	-0.341034	-84.682485	-59.373355	-1.334748
36004		0.638186	-0.589398	-0.359166	-0.341069	-84.682119	-59.370528	-1.343773
36005		0.638214	-0.589397	-0.359139	-0.341047	-84.678338	-59.365997	-1.346101
36006		0.638236	-0.589409	-0.359115	-0.341010	-84.678481	-59.360259	-1.344516
36007		0.638267	-0.589416	-0.359092	-0.340964	-84.677652	-59.354033	-1.342498
36008		0.638261	-0.589459	-0.359045	-0.340950	-84.682264	-59.348200	-1.342697
36009		0.638253	-0.589503	-0.358999	-0.340940	-84.687212	-59.342881	-1.342950
36010		0.638217	-0.589572	-0.358923	-0.340967	-84.694098	-59.337999	-1.348293
36011		0.638183	-0.589623	-0.358883	-0.340985	-84.701473	-59.335799	-1.349450
36012		0.638161	-0.589673	-0.358810	-0.341015	-84.703709	-59.331429	-1.357577
36013		0.638155	-0.589696	-0.358786	-0.341012	-84.706535	-59.328824	-1.357734
36014		0.638170	-0.589697	-0.358764	-0.341006	-84.703539	-59.326133	-1.360781
36015		0.638182	-0.589716	-0.358760	-0.340956	-84.708502	-59.321313	-1.353518
36016		0.638180	-0.589738	-0.358766	-0.340916	-84.715857	-59.318309	-1.344797
36017		0.638169	-0.589763	-0.358778	-0.340879	-84.724920	-59.316278	-1.334953
36018		0.638167	-0.589786	-0.358790	-0.340829	-84.733554	-59.313111	-1.324070
36019		0.638193	-0.589787	-0.358811	-0.340758	-84.737683	-59.308827	-1.312916
36020		0.638224	-0.589773	-0.358850	-0.340684	-84.740630	-59.305938	-1.300608
36021		0.638219	-0.589794	-0.358881	-0.340623	-84.751780	-59.303556	-1.285475
36022		0.638218	-0.589839	-0.358853	-0.340576	-84.760302	-59.296685	-1.278529
36023		0.638211	-0.589909	-0.358816	-0.340507	-84.774441	-59.287065	-1.266932
36024		0.638221	-0.589973	-0.358769	-0.340429	-84.785476	-59.275591	-1.257129
36025		0.638256	-0.590012	-0.358730	-0.340336	-84.791345	-59.263568	-1.248256
36026		0.638294	-0.590045	-0.358692	-0.340247	-84.795720	-59.251901	-1.240340
36027		0.638353	-0.590051	-0.358668	-0.340149	-84.795353	-59.240864	-1.233125
36028		0.638415	-0.590059	-0.358658	-0.340031	-84.797403	-59.229333	-1.221309
36029		0.638473	-0.590076	-0.358646	-0.339906	-84.802023	-59.217057	-1.207424
36030		0.638530	-0.590120	-0.358581	-0.339790	-84.805770	-59.200324	-1.199699
36031		0.638614	-0.590151	-0.358508	-0.339656	-84.805073	-59.181340	-1.193356
36032		0.638713	-0.590192	-0.358403	-0.339510	-84.802546	-59.158113	-1.189824
36033		0.638787	-0.590288	-0.358243	-0.339371	-84.806496	-59.130258	-1.188126
36034		0.638863	-0.590417	-0.358004	-0.339257	-84.807438	-59.096870	-1.197557
36035		0.638943	-0.590584	-0.357730	-0.339105	-84.813606	-59.056781	-1.203346
36036		0.639050	-0.590759	-0.357417	-0.338929	-84.816686	-59.010793	-1.212051
36037		0.639128	-0.590965	-0.357082	-0.338776	-84.824596	-58.964841	-1.222187
36038		0.639228	-0.591180	-0.356711	-0.338601	-84.830095	-58.913357	-1.234701
36039		0.639323	-0.591393	-0.356364	-0.338416	-84.838474	-58.863406	-1.242527
36040		0.639431	-0.591583	-0.356030	-0.338231	-84.842787	-58.814616	-1.251442
36041		0.639564	-0.591742	-0.355721	-0.338026	-84.842928	-58.766501	-1.258600
36042		0.639713	-0.591869	-0.355453	-0.337804	-84.840738	-58.720758	-1.261748
36043		0.639848	-0.592002	-0.355176	-0.337607	-84.838792	-58.676418	-1.267923
36044		0.639978	-0.592127	-0.354905	-0.337425	-84.835237	-58.633977	-1.276068
36045		0.640073	-0.592280	-0.354646	-0.337249	-84.840614	-58.593384	-1.278659
36046		0.640152	-0.592435	-0.354413	-0.337072	-84.850218	-58.555168	-1.276597
36047		0.640216	-0.592573	-0.354190	-0.336944	-84.856313	-58.522253	-1.280296
36048		0.640299	-0.592660	-0.354025	-0.336805	-84.857636	-58.493997	-1.280450
36049		0.640372	-0.592748	-0.353845	-0.336702	-84.856312	-58.467417	-1.287006
36050		0.640433	-0.592822	-0.353667	-0.336640	-84.851325	-58.444700	-1.299517
36051		0.640474	-0.592877	-0.353533	-0.336607	-84.847058	-58.428840	-1.310461
36052		0.640511	-0.592922	-0.353411	-0.336584	-84.842104	-58.414994	-1.321598
36053		0.640528	-0.592962	-0.353319	-0.336580	-84.839377	-58.405708	-1.330891
36054		0.640568	-0.592955	-0.353289	-0.336547	-84.833859	-58.399841	-1.333430
36055		0.640576	-0.592962	-0.353246	-0.336564	-84.829390	-58.397228	-1.341297
36056		0.640569	-0.592963	-0.353227	-0.336596	-84.826501	-58.398265	-1.347718
36057		0.640580	-0.592913	-0.353260	-0.336629	-84.817791	-58.404246	-1.352916
36058		0.640610	-0.592813	-0.353345	-0.336658	-84.803358	-58.414888	-1.356290
36059		0.640617	-0.592709	-0.353430	-0.336738	-84.787188	-58.430123	-1.365665
36060		0.640623	-0.592579	-0.353565	-0.336814	-84.771285	-58.449843	-1.370179
36061		0.640580	-0.592483	-0.353700	-0.336924	-84.763906	-58.472476	-1.373144
36062		0.640541	-0.592385	-0.353824	-0.337041	-84.754236	-58.494803	-1.379139
36063		0.640460	-0.592312	-0.353963	-0.337178	-84.752923	-58.520435	-1.381049
36064		0.640415	-0.592211	-0.354108	-0.337287	-84.745814	-58.544073	-1.382831
36065		0.640395	-0.592096	-0.354257	-0.337369	-84.735943	-58.565706	-1.383267
36066		0.640393	-0.591955	-0.354427	-0.337442	-84.722224	-58.588496	-1.383170
36067		0.640373	-0.591852	-0.354572	-0.337509	-84.714804	-58.608456	-1.381139
36068		0.640339	-0.591755	-0.354690	-0.337620	-84.704695	-58.629642	-1.387388
36069		0.640298	-0.591700	-0.354789	-0.337690	-84.703491	-58.645447	-1.386210
36070		0.640227	-0.591689	-0.354859	-0.337770	-84.709526	-58.659380	-1.384398
36071		0.640174	-0.591673	-0.354936	-0.337816	-84.715746	-58.670968	-1.378689
36072		0.640153	-0.591637	-0.355017	-0.337835	-84.717525	-58.680488	-1.372385
36073		0.640136	-0.591593	-0.355116	-0.337841	-84.720059	-58.690574	-1.362844
36074		0.640136	-0.591551	-0.355218	-0.337807	-84.723923	-58.697462	-1.348422
36075		0.640145	-0.591509	-0.355335	-0.337741	-84.730573	-58.702868	-1.327918
36076		0.640191	-0.591453	-0.355452	-0.337628	-84.734193	-58.704152	-1.304548
36077		0.640247	-0.591410	-0.355545	-0.337499	-84.738072	-58.701669	-1.281494
36078		0.640334	-0.591382	-0.355615	-0.337310	-84.742953	-58.691566	-1.254230
36079		0.640386	-0.591395	-0.355650	-0.337152	-84.753482	-58.680919	-1.229766
36080		0.640459	-0.591408	-0.355666	-0.336972	-84.761728	-58.666521	-1.206108
36081		0.640507	-0.591462	-0.355613	-0.336842	-84.769923	-58.649897	-1.193564
36082		0.640570	-0.591504	-0.355538	-0.336727	-84.771824	-58.632391	-1.187909
36083		0.640616	-0.591572	-0.355398	-0.336670	-84.770337	-58.613770	-1.195501
36084		0.640647	-0.591647	-0.355248	-0.336635	-84.769220	-58.596173	-1.205881
36085		0.640678	-0.591734	-0.355082	-0.336600	-84.768600	-58.577014	-1.217336
36086		0.640702	-0.591819	-0.354937	-0.336557	-84.770877	-58.559200	-1.224662
36087		0.640721	-0.591932	-0.354797	-0.336470	-84.781638	-58.538041	-1.222472
36088		0.640719	-0.592052	-0.354679	-0.336386	-84.797292	-58.519318	-1.215870
36089		0.640745	-0.592145	-0.354631	-0.336225	-84.816821	-58.500442	-1.193477
36090		0.640818	-0.592184	-0.354634	-0.336012	-84.830316	-58.481844	-1.164867
36091		0.640901	-0.592196	-0.354679	-0.335786	-84.842712	-58.466040	-1.131925
36092		0.640985	-0.592169	-0.354757	-0.335593	-84.849036	-58.456384	-1.102760
36093		0.641033	-0.592137	-0.354841	-0.335467	-84.854441	-58.453310	-1.080090
36094		0.641068	-0.592088	-0.354924	-0.335400	-84.854309	-58.455415	-1.066226
36095		0.641069	-0.592035	-0.355009	-0.335403	-84.852425	-58.463794	-1.060124
36096		0.641084	-0.591933	-0.355108	-0.335447	-84.839467	-58.477274	-1.062985
36097		0.641120	-0.591778	-0.355245	-0.335506	-84.817980	-58.495606	-1.068631
36098		0.641202	-0.591564	-0.355430	-0.335533	-84.787910	-58.515684	-1.071899
36099		0.641256	-0.591371	-0.355599	-0.335590	-84.761040	-58.536832	-1.077644
36100		0.641354	-0.591134	-0.355820	-0.335586	-84.730705	-58.557685	-1.074734
36101		0.641431	-0.590936	-0.356003	-0.335594	-84.705004	-58.575848	-1.073845
36102		0.641509	-0.590746	-0.356206	-0.335563	-84.684844	-58.592640	-1.064274
36103		0.641586	-0.590591	-0.356373	-0.335512	-84.668952	-58.604093	-1.053514
36104		0.641666	-0.590468	-0.356499	-0.335441	-84.655820	-58.609900	-1.042786
36105		0.641728	-0.590395	-0.356586	-0.335358	-84.650262	-58.610947	-1.030264
36106		0.641770	-0.590357	-0.356595	-0.335335	-84.641954	-58.609667	-1.031903
36107		0.641781	-0.590375	-0.356532	-0.335351	-84.637430	-58.604936	-1.041482
36108		0.641777	-0.590439	-0.356400	-0.335385	-84.634938	-58.595209	-1.057828
36109		0.641735	-0.590554	-0.356224	-0.335448	-84.639161	-58.583877	-1.077029
36110		0.641676	-0.590717	-0.356008	-0.335505	-84.649941	-58.568078	-1.095650
36111		0.641593	-0.590908	-0.355775	-0.335574	-84.665684	-58.551879	-1.114023
36112		0.641562	-0.591060	-0.355594	-0.335557	-84.679904	-58.532912	-1.120204
36113		0.641531	-0.591225	-0.355413	-0.335518	-84.697609	-58.512079	-1.122487
36114		0.641524	-0.591340	-0.355316	-0.335432	-84.714969	-58.495169	-1.112830
36115		0.641524	-0.591408	-0.355286	-0.335343	-84.729539	-58.484436	-1.098775
36116		0.641567	-0.591409	-0.355338	-0.335205	-84.738797	-58.477210	-1.075537
36117		0.641608	-0.591367	-0.355420	-0.335112	-84.740960	-58.476922	-1.058065
36118		0.641671	-0.591262	-0.355537	-0.335054	-84.730938	-58.483012	-1.047686
36119		0.641736	-0.591153	-0.355644	-0.335008	-84.718422	-58.489070	-1.040767
36120		0.641793	-0.591066	-0.355689	-0.335004	-84.702356	-58.493002	-1.045394
36121		0.641811	-0.591043	-0.355651	-0.335053	-84.690080	-58.493580	-1.060390
36122		0.641791	-0.591092	-0.355506	-0.335157	-84.680986	-58.488865	-1.088357
36123		0.641739	-0.591206	-0.355311	-0.335261	-84.681601	-58.479277	-1.115360
36124		0.641676	-0.591330	-0.355090	-0.335399	-84.680629	-58.470234	-1.148785
36125		0.641652	-0.591427	-0.354908	-0.335467	-84.679209	-58.458574	-1.172228
36126		0.641639	-0.591512	-0.354728	-0.335532	-84.675010	-58.446967	-1.196709
36127		0.641650	-0.591555	-0.354616	-0.335553	-84.670222	-58.438023	-1.211262
36128		0.641699	-0.591549	-0.354571	-0.335517	-84.662759	-58.430411	-1.215930
36129		0.641738	-0.591545	-0.354514	-0.335510	-84.653808	-58.424222	-1.225181
36130		0.641747	-0.591566	-0.354434	-0.335541	-84.647481	-58.419185	-1.238827
36131		0.641755	-0.591583	-0.354387	-0.335543	-84.645415	-58.414889	-1.244264
36132		0.641755	-0.591604	-0.354336	-0.335560	-84.643369	-58.411400	-1.251582
36133		0.641744	-0.591624	-0.354283	-0.335602	-84.640497	-58.410066	-1.261889
36134		0.641735	-0.591640	-0.354222	-0.335656	-84.635247	-58.408975	-1.275472
36135		0.641722	-0.591659	-0.354187	-0.335685	-84.634778	-58.408080	-1.281701
36136		0.641700	-0.591691	-0.354169	-0.335688	-84.640717	-58.406756	-1.280213
36137		0.641637	-0.591766	-0.354126	-0.335722	-84.653660	-58.405690	-1.280122
36138		0.641569	-0.591838	-0.354105	-0.335748	-84.668975	-58.406075	-1.275872
36139		0.641512	-0.591873	-0.354134	-0.335766	-84.681767	-58.410547	-1.268014
36140		0.641498	-0.591840	-0.354237	-0.335742	-84.688202	-58.418406	-1.252900
36141		0.641528	-0.591753	-0.354360	-0.335707	-84.683355	-58.427112	-1.241534
36142		0.641567	-0.591640	-0.354528	-0.335655	-84.678415	-58.438703	-1.224329
36143		0.641607	-0.591558	-0.354630	-0.335614	-84.671989	-58.444817	-1.215082
36144		0.641593	-0.591558	-0.354649	-0.335621	-84.674604	-58.447367	-1.212585
36145		0.641513	-0.591656	-0.354603	-0.335650	-84.693241	-58.445574	-1.209017
36146		0.641402	-0.591782	-0.354519	-0.335729	-84.712943	-58.444652	-1.213174
36147		0.641313	-0.591878	-0.354480	-0.335770	-84.731970	-58.444704	-1.209923
36148		0.641302	-0.591860	-0.354543	-0.335757	-84.736305	-58.449600	-1.200653
36149		0.641340	-0.591761	-0.354675	-0.335719	-84.729831	-58.458884	-1.188963
36150		0.641410	-0.591598	-0.354861	-0.335676	-84.714369	-58.472941	-1.176994
36151		0.641484	-0.591427	-0.355059	-0.335627	-84.698431	-58.487554	-1.163790
36152		0.641519	-0.591320	-0.355201	-0.335599	-84.691056	-58.498747	-1.152763
36153		0.641493	-0.591300	-0.355258	-0.335623	-84.693659	-58.506461	-1.148571
36154		0.641423	-0.591361	-0.355240	-0.335668	-84.706317	-58.508784	-1.147514
36155		0.641328	-0.591464	-0.355185	-0.335727	-84.724568	-58.508869	-1.147833
36156		0.641275	-0.591543	-0.355134	-0.335744	-84.737543	-58.505495	-1.146752
36157		0.641224	-0.591596	-0.355129	-0.335750	-84.750832	-58.505703	-1.140321
36158		0.641236	-0.591587	-0.355150	-0.335724	-84.751571	-58.505365	-1.135497
36159		0.641271	-0.591510	-0.355263	-0.335672	-84.748400	-58.511624	-1.122289
36160		0.641321	-0.591420	-0.355401	-0.335589	-84.745593	-58.517581	-1.103550
36161		0.641348	-0.591343	-0.355553	-0.335513	-84.748068	-58.525479	-1.081483
36162		0.641365	-0.591301	-0.355658	-0.335443	-84.753101	-58.529402	-1.062581
36163		0.641375	-0.591291	-0.355715	-0.335381	-84.759380	-58.529522	-1.047959
36164		0.641367	-0.591295	-0.355766	-0.335335	-84.768324	-58.530303	-1.033987
36165		0.641349	-0.591329	-0.355765	-0.335309	-84.777534	-58.527973	-1.026323
36166		0.641329	-0.591369	-0.355744	-0.335300	-84.785035	-58.525151	-1.023087
36167		0.641280	-0.591434	-0.355719	-0.335304	-84.798350	-58.523233	-1.018292
36168		0.641251	-0.591481	-0.355715	-0.335282	-84.810289	-58.521037	-1.009769
36169		0.641200	-0.591537	-0.355714	-0.335282	-84.824793	-58.520920	-1.001699
36170		0.641177	-0.591567	-0.355733	-0.335252	-84.835739	-58.520190	-0.990977
36171		0.641157	-0.591596	-0.355759	-0.335213	-84.847348	-58.519344	-0.978404
36172		0.641161	-0.591603	-0.355789	-0.335159	-84.854205	-58.517440	-0.966708
36173		0.641165	-0.591629	-0.355816	-0.335078	-84.865794	-58.512856	-0.949945
36174		0.641132	-0.591675	-0.355812	-0.335063	-84.877562	-58.511272	-0.942203
36175		0.641150	-0.591670	-0.355838	-0.335011	-84.880615	-58.509125	-0.933169
36176		0.641169	-0.591642	-0.355862	-0.334999	-84.876737	-58.510351	-0.932075
36177		0.641180	-0.591600	-0.355887	-0.335024	-84.869247	-58.514982	-0.936439
36178		0.641174	-0.591564	-0.355889	-0.335098	-84.859090	-58.521681	-0.949183
36179		0.641136	-0.591550	-0.355878	-0.335208	-84.852479	-58.530318	-0.964557
36180		0.641068	-0.591603	-0.355822	-0.335304	-84.856875	-58.533543	-0.976395
36181		0.641016	-0.591659	-0.355762	-0.335369	-84.862098	-58.533541	-0.985024
36182		0.640991	-0.591684	-0.355769	-0.335365	-84.869569	-58.533880	-0.979927
36183		0.640995	-0.591677	-0.355807	-0.335328	-84.873840	-58.534345	-0.970528
36184		0.641023	-0.591648	-0.355870	-0.335258	-84.876170	-58.534217	-0.956813
36185		0.641033	-0.591621	-0.355942	-0.335212	-84.879998	-58.537065	-0.943822
36186		0.641001	-0.591622	-0.355973	-0.335239	-84.884325	-58.542440	-0.941295
36187		0.640951	-0.591632	-0.356012	-0.335275	-84.891889	-58.549457	-0.937152
36188		0.640877	-0.591681	-0.355976	-0.335366	-84.898517	-58.554205	-0.945500
36189		0.640821	-0.591698	-0.355972	-0.335449	-84.901253	-58.561174	-0.952477
36190		0.640776	-0.591729	-0.355925	-0.335532	-84.901428	-58.563984	-0.964490
36191		0.640754	-0.591735	-0.355901	-0.335588	-84.898870	-58.566625	-0.973534
36192		0.640734	-0.591740	-0.355856	-0.335665	-84.892668	-58.569114	-0.988457
36193		0.640727	-0.591733	-0.355847	-0.335698	-84.889272	-58.571235	-0.994431
36194		0.640708	-0.591732	-0.355834	-0.335750	-84.886460	-58.574681	-1.002178
36195		0.640681	-0.591752	-0.355815	-0.335788	-84.888368	-58.576092	-1.006460
36196		0.640656	-0.591797	-0.355784	-0.335787	-84.895906	-58.573137	-1.004915
36197		0.640602	-0.591877	-0.355736	-0.335802	-84.909647	-58.569887	-1.002899
36198		0.640566	-0.591956	-0.355703	-0.335764	-84.926121	-58.563466	-0.992893
36199		0.640511	-0.592045	-0.355695	-0.335722	-84.948761	-58.559052	-0.976790
36200		0.640483	-0.592085	-0.355714	-0.335686	-84.962212	-58.557772	-0.964078
36201		0.640489	-0.592088	-0.355760	-0.335619	-84.970538	-58.556211	-0.948794
36202		0.640495	-0.592085	-0.355818	-0.335552	-84.978806	-58.555928	-0.932547
36203		0.640514	-0.592070	-0.355906	-0.335450	-84.988712	-58.555328	-0.909264
36204		0.640546	-0.592023	-0.356010	-0.335360	-84.992707	-58.557397	-0.889042
36205		0.640530	-0.592034	-0.356073	-0.335305	-85.005103	-58.558601	-0.871228
36206		0.640485	-0.592096	-0.356070	-0.335282	-85.021413	-58.556464	-0.860116
36207		0.640434	-0.592185	-0.356057	-0.335237	-85.043214	-58.551265	-0.844708
36208		0.640391	-0.592260	-0.356045	-0.335201	-85.061454	-58.546961	-0.832018
36209		0.640360	-0.592322	-0.356042	-0.335153	-85.077943	-58.542474	-0.818304
36210		0.640357	-0.592349	-0.356081	-0.335069	-85.091474	-58.538868	-0.799187
36211		0.640339	-0.592392	-0.356121	-0.334986	-85.109539	-58.535335	-0.777476
36212		0.640315	-0.592428	-0.356140	-0.334947	-85.122222	-58.533776	-0.764889
36213		0.640285	-0.592457	-0.356177	-0.334914	-85.135452	-58.534430	-0.750980
36214		0.640266	-0.592497	-0.356200	-0.334855	-85.149883	-58.531443	-0.735068
36215		0.640233	-0.592532	-0.356232	-0.334823	-85.163928	-58.531801	-0.721317
36216		0.640196	-0.592571	-0.356251	-0.334804	-85.177093	-58.531974	-0.710371
36217		0.640167	-0.592605	-0.356278	-0.334770	-85.190320	-58.531566	-0.697295
36218		0.640174	-0.592613	-0.356297	-0.334723	-85.195629	-58.529228	-0.688066
36219		0.640166	-0.592638	-0.356293	-0.334699	-85.201944	-58.526714	-0.682602
36220		0.640181	-0.592607	-0.356323	-0.334693	-85.198264	-58.529060	-0.681351
36221		0.640166	-0.592618	-0.356311	-0.334716	-85.198942	-58.529979	-0.684351
36222		0.640122	-0.592624	-0.356291	-0.334810	-85.196549	-58.536366	-0.696535
36223		0.640120	-0.592620	-0.356280	-0.334834	-85.193562	-58.537424	-0.701533
36224		0.640133	-0.592595	-0.356275	-0.334856	-85.186283	-58.538945	-0.708210
36225		0.640116	-0.592601	-0.356245	-0.334910	-85.182923	-58.540843	-0.717917
36226		0.640077	-0.592625	-0.356190	-0.335003	-85.179851	-58.543775	-0.733563
36227		0.640053	-0.592640	-0.356147	-0.335067	-85.176908	-58.545406	-0.745224
36228		0.640073	-0.592586	-0.356161	-0.335109	-85.164405	-58.550388	-0.755070
36229		0.640082	-0.592521	-0.356180	-0.335186	-85.149257	-58.559079	-0.769369
36230		0.640099	-0.592456	-0.356202	-0.335244	-85.134619	-58.566334	-0.781264
36231		0.640085	-0.592421	-0.356203	-0.335334	-85.124358	-58.574325	-0.795687
36232		0.640067	-0.592396	-0.356200	-0.335413	-85.116681	-58.581137	-0.807915
36233		0.640034	-0.592370	-0.356215	-0.335506	-85.110894	-58.590811	-0.818841
36234		0.640016	-0.592327	-0.356234	-0.335596	-85.101253	-58.600698	-0.831325
36235		0.640041	-0.592246	-0.356294	-0.335629	-85.088058	-58.609256	-0.836681
36236		0.640049	-0.592190	-0.356333	-0.335670	-85.078773	-58.616742	-0.842411
36237		0.640074	-0.592100	-0.356427	-0.335682	-85.068407	-58.626757	-0.841033
36238		0.640104	-0.592024	-0.356508	-0.335672	-85.060447	-58.633704	-0.837389
36239		0.640086	-0.591975	-0.356618	-0.335679	-85.063132	-58.644820	-0.826849
36240		0.640078	-0.591921	-0.356717	-0.335683	-85.063379	-58.654834	-0.818311
36241		0.640088	-0.591850	-0.356833	-0.335667	-85.061564	-58.664507	-0.807523
36242		0.640094	-0.591814	-0.356917	-0.335628	-85.064875	-58.669203	-0.794537
36243		0.640064	-0.591822	-0.356961	-0.335625	-85.073277	-58.673233	-0.785489
36244		0.640041	-0.591853	-0.356999	-0.335573	-85.087641	-58.672379	-0.769068
36245		0.639956	-0.591945	-0.356996	-0.335576	-85.111151	-58.672424	-0.756448
36246		0.639867	-0.592070	-0.356949	-0.335574	-85.137276	-58.667884	-0.745710
36247		0.639794	-0.592164	-0.356949	-0.335549	-85.161979	-58.665735	-0.729367
36248		0.639720	-0.592256	-0.356935	-0.335542	-85.184203	-58.663828	-0.717394
36249		0.639691	-0.592297	-0.356999	-0.335458	-85.205188	-58.662534	-0.691794
36250		0.639674	-0.592328	-0.357060	-0.335368	-85.223331	-58.660520	-0.667522
36251		0.639649	-0.592372	-0.357121	-0.335274	-85.244704	-58.658135	-0.640966
36252		0.639603	-0.592434	-0.357142	-0.335229	-85.264654	-58.656169	-0.623504
36253		0.639550	-0.592517	-0.357155	-0.335171	-85.288895	-58.652391	-0.603144
36254		0.639489	-0.592625	-0.357166	-0.335085	-85.319850	-58.645778	-0.576413
36255		0.639418	-0.592742	-0.357172	-0.335007	-85.352199	-58.639540	-0.550144
36256		0.639391	-0.592818	-0.357196	-0.334899	-85.376920	-58.632245	-0.523644
36257		0.639372	-0.592881	-0.357225	-0.334793	-85.398611	-58.625580	-0.498691
36258		0.639341	-0.592942	-0.357239	-0.334728	-85.417603	-58.621196	-0.480487
36259		0.639294	-0.593008	-0.357272	-0.334667	-85.440187	-58.619031	-0.458996
36260		0.639247	-0.593080	-0.357294	-0.334605	-85.463036	-58.615650	-0.438216
36261		0.639140	-0.593185	-0.357269	-0.334649	-85.486568	-58.617277	-0.431444
36262		0.639068	-0.593270	-0.357237	-0.334670	-85.503941	-58.616093	-0.426528
36263		0.639000	-0.593320	-0.357248	-0.334701	-85.518114	-58.619916	-0.420628
36264		0.638962	-0.593322	-0.357306	-0.334707	-85.527042	-58.626115	-0.411050
36265		0.638926	-0.593318	-0.357377	-0.334707	-85.536345	-58.632986	-0.399571
36266		0.638865	-0.593332	-0.357435	-0.334736	-85.548000	-58.641240	-0.390618
36267		0.638823	-0.593306	-0.357536	-0.334756	-85.555769	-58.652678	-0.379169
36268		0.638808	-0.593259	-0.357664	-0.334730	-85.562377	-58.662712	-0.361599
36269		0.638797	-0.593209	-0.357779	-0.334718	-85.566029	-58.672687	-0.348119
36270		0.638822	-0.593139	-0.357880	-0.334686	-85.562793	-58.679554	-0.337752
36271		0.638826	-0.593094	-0.357941	-0.334694	-85.559868	-58.686134	-0.334757
36272		0.638792	-0.593112	-0.357914	-0.334754	-85.559991	-58.688972	-0.342936
36273		0.638776	-0.593126	-0.357877	-0.334800	-85.557799	-58.689515	-0.351887
36274		0.638761	-0.593146	-0.357815	-0.334859	-85.553349	-58.688820	-0.365636
36275		0.638728	-0.593166	-0.357742	-0.334965	-85.546730	-58.691207	-0.386022
36276		0.638663	-0.593234	-0.357582	-0.335138	-85.539315	-58.691308	-0.421242
36277		0.638649	-0.593253	-0.357488	-0.335233	-85.529370	-58.690647	-0.444387
36278		0.638653	-0.593229	-0.357440	-0.335318	-85.515155	-58.693645	-0.464939
36279		0.638696	-0.593187	-0.357400	-0.335354	-85.497821	-58.692924	-0.481663
36280		0.638712	-0.593177	-0.357337	-0.335408	-85.485424	-58.691668	-0.499530
36281		0.638730	-0.593183	-0.357283	-0.335420	-85.479059	-58.687578	-0.509011
36282		0.638706	-0.593241	-0.357170	-0.335484	-85.477161	-58.682373	-0.526266
36283		0.638697	-0.593299	-0.357079	-0.335494	-85.478914	-58.674534	-0.534433
36284		0.638666	-0.593366	-0.356960	-0.335562	-85.478328	-58.669138	-0.551877
36285		0.638676	-0.593387	-0.356873	-0.335600	-85.470751	-58.664077	-0.567597
36286		0.638705	-0.593357	-0.356816	-0.335658	-85.453929	-58.663743	-0.587659
36287		0.638741	-0.593303	-0.356802	-0.335697	-85.437469	-58.665885	-0.601990
36288		0.638768	-0.593269	-0.356761	-0.335752	-85.421888	-58.666756	-0.619618
36289		0.638787	-0.593239	-0.356745	-0.335786	-85.411127	-58.668136	-0.630467
36290		0.638813	-0.593207	-0.356732	-0.335805	-85.400775	-58.668597	-0.639339
36291		0.638831	-0.593208	-0.356688	-0.335818	-85.394439	-58.665555	-0.647960
36292		0.638883	-0.593167	-0.356666	-0.335813	-85.380677	-58.662852	-0.657182
36293		0.638886	-0.593182	-0.356638	-0.335812	-85.380460	-58.660081	-0.659672
36294		0.638892	-0.593206	-0.356604	-0.335794	-85.381965	-58.655233	-0.660213
36295		0.638875	-0.593235	-0.356597	-0.335782	-85.388691	-58.653494	-0.655891
36296		0.638872	-0.593254	-0.356597	-0.335754	-85.393980	-58.651063	-0.650211
36297		0.638872	-0.593265	-0.356599	-0.335734	-85.397435	-58.649439	-0.646095
36298		0.638904	-0.593250	-0.356602	-0.335695	-85.394401	-58.646237	-0.643756
36299		0.638917	-0.593262	-0.356591	-0.335659	-85.396591	-58.642005	-0.640054
36300		0.638903	-0.593324	-0.356519	-0.335655	-85.402421	-58.634663	-0.642714
36301		0.638888	-0.593373	-0.356484	-0.335633	-85.410317	-58.629436	-0.639293
36302		0.638866	-0.593451	-0.356400	-0.335626	-85.418742	-58.620794	-0.641343
36303		0.638866	-0.593481	-0.356391	-0.335583	-85.425809	-58.616096	-0.634007
36304		0.638893	-0.593473	-0.356408	-0.335526	-85.426917	-58.612635	-0.626355
36305		0.638962	-0.593414	-0.356473	-0.335433	-85.421742	-58.610456	-0.614540
36306		0.639031	-0.593351	-0.356528	-0.335354	-85.414178	-58.608712	-0.606200
36307		0.639104	-0.593298	-0.356549	-0.335287	-85.404107	-58.604655	-0.603468
36308		0.639128	-0.593312	-0.356511	-0.335254	-85.402894	-58.598044	-0.604341
36309		0.639127	-0.593383	-0.356424	-0.335224	-85.409071	-58.587071	-0.605682
36310		0.639102	-0.593495	-0.356283	-0.335225	-85.418009	-58.573527	-0.613314
36311		0.639074	-0.593609	-0.356165	-0.335201	-85.431084	-58.560182	-0.614153
36312		0.639071	-0.593696	-0.356050	-0.335175	-85.437455	-58.546753	-0.618354
36313		0.639090	-0.593750	-0.355970	-0.335127	-85.440748	-58.534815	-0.618944
36314		0.639132	-0.593776	-0.355910	-0.335066	-85.439411	-58.523531	-0.619092
36315		0.639166	-0.593793	-0.355850	-0.335032	-85.435838	-58.514783	-0.623089
36316		0.639168	-0.593827	-0.355771	-0.335053	-85.433116	-58.508944	-0.633642
36317		0.639177	-0.593862	-0.355683	-0.335069	-85.429212	-58.501861	-0.645249
36318		0.639175	-0.593864	-0.355628	-0.335126	-85.421269	-58.501713	-0.660133
36319		0.639219	-0.593849	-0.355570	-0.335132	-85.408838	-58.496532	-0.672751
36320		0.639255	-0.593834	-0.355490	-0.335173	-85.392948	-58.492540	-0.692780
36321		0.639268	-0.593821	-0.355453	-0.335211	-85.383858	-58.492277	-0.704741
36322		0.639253	-0.593824	-0.355412	-0.335278	-85.377931	-58.494370	-0.718278
36323		0.639257	-0.593800	-0.355418	-0.335307	-85.372113	-58.497392	-0.723770
36324		0.639287	-0.593729	-0.355478	-0.335310	-85.362314	-58.503491	-0.724203
36325		0.639315	-0.593650	-0.355552	-0.335320	-85.352045	-58.511406	-0.724406
36326		0.639362	-0.593547	-0.355622	-0.335338	-85.335009	-58.519706	-0.729511
36327		0.639388	-0.593435	-0.355724	-0.335379	-85.319930	-58.533122	-0.732893
36328		0.639386	-0.593342	-0.355800	-0.335466	-85.305570	-58.548149	-0.742555
36329		0.639398	-0.593235	-0.355877	-0.335550	-85.287674	-58.563047	-0.753938
36330		0.639398	-0.593142	-0.355915	-0.335674	-85.267309	-58.577695	-0.774028
36331		0.639405	-0.593066	-0.355955	-0.335753	-85.252199	-58.588518	-0.786645
36332		0.639403	-0.593012	-0.355968	-0.335839	-85.238899	-58.597363	-0.801290
36333		0.639377	-0.592977	-0.355995	-0.335921	-85.232733	-58.607315	-0.810249
36334		0.639379	-0.592935	-0.356038	-0.335945	-85.227667	-58.613509	-0.811637
36335		0.639398	-0.592862	-0.356112	-0.335959	-85.218990	-58.621892	-0.811361
36336		0.639455	-0.592754	-0.356202	-0.335946	-85.203890	-58.629325	-0.810512
36337		0.639513	-0.592649	-0.356307	-0.335911	-85.191903	-58.636193	-0.804594
36338		0.639520	-0.592598	-0.356354	-0.335938	-85.184934	-58.643192	-0.806937
36339		0.639491	-0.592600	-0.356393	-0.335948	-85.190903	-58.647842	-0.801187
36340		0.639457	-0.592619	-0.356367	-0.336007	-85.191352	-58.650617	-0.808985
36341		0.639419	-0.592664	-0.356325	-0.336043	-85.196880	-58.649774	-0.813007
36342		0.639374	-0.592724	-0.356259	-0.336092	-85.202514	-58.647830	-0.820406
36343		0.639364	-0.592748	-0.356240	-0.336091	-85.205974	-58.645968	-0.820066
36344		0.639306	-0.592829	-0.356146	-0.336158	-85.212823	-58.642911	-0.831027
36345		0.639295	-0.592863	-0.356124	-0.336142	-85.218707	-58.639356	-0.828251
36346		0.639284	-0.592894	-0.356097	-0.336136	-85.223081	-58.636274	-0.827581
36347		0.639308	-0.592892	-0.356104	-0.336088	-85.224048	-58.632605	-0.821762
36348		0.639341	-0.592880	-0.356124	-0.336024	-85.224535	-58.628846	-0.813451
36349		0.639329	-0.592913	-0.356145	-0.335966	-85.236917	-58.625779	-0.798995
36350		0.639300	-0.592983	-0.356086	-0.335960	-85.246945	-58.619623	-0.798060
36351		0.639276	-0.593035	-0.356065	-0.335937	-85.257703	-58.615605	-0.791657
36352		0.639274	-0.593054	-0.356078	-0.335893	-85.265173	-58.612888	-0.781970
36353		0.639286	-0.593051	-0.356081	-0.335873	-85.264949	-58.611410	-0.779873
36354		0.639282	-0.593062	-0.356053	-0.335889	-85.263782	-58.610149	-0.784568
36355		0.639285	-0.593067	-0.356060	-0.335866	-85.266412	-58.608820	-0.780314
36356		0.639262	-0.593085	-0.356078	-0.335860	-85.273808	-58.610064	-0.773971
36357		0.639250	-0.593105	-0.356100	-0.335824	-85.282545	-58.609006	-0.763601
36358		0.639236	-0.593107	-0.356108	-0.335841	-85.283860	-58.611241	-0.763809
36359		0.639259	-0.593079	-0.356164	-0.335787	-85.285268	-58.611766	-0.752823
36360		0.639308	-0.593010	-0.356239	-0.335736	-85.278677	-58.614438	-0.744899
36361		0.639358	-0.592936	-0.356323	-0.335682	-85.271966	-58.617657	-0.736051
36362		0.639400	-0.592877	-0.356375	-0.335651	-85.264465	-58.619930	-0.732616
36363		0.639400	-0.592872	-0.356375	-0.335660	-85.263057	-58.620644	-0.734238
36364		0.639351	-0.592899	-0.356327	-0.335757	-85.262063	-58.624785	-0.748493
36365		0.639339	-0.592923	-0.356281	-0.335786	-85.261449	-58.622855	-0.755737
36366		0.639322	-0.592943	-0.356253	-0.335812	-85.262254	-58.622539	-0.760222
36367		0.639341	-0.592937	-0.356232	-0.335809	-85.257542	-58.620205	-0.764576
36368		0.639360	-0.592913	-0.356233	-0.335813	-85.251472	-58.620724	-0.768206
36369		0.639392	-0.592877	-0.356258	-0.335791	-85.245965	-58.621034	-0.766942
36370		0.639414	-0.592823	-0.356303	-0.335796	-85.238293	-58.625784	-0.767673
36371		0.639451	-0.592754	-0.356362	-0.335785	-85.228766	-58.630487	-0.766829
36372		0.639496	-0.592687	-0.356447	-0.335728	-85.224178	-58.633568	-0.756354
36373		0.639503	-0.592662	-0.356464	-0.335741	-85.219938	-58.636244	-0.758452
36374		0.639495	-0.592664	-0.356489	-0.335724	-85.224437	-58.637232	-0.751982
36375		0.639480	-0.592709	-0.356468	-0.335696	-85.233545	-58.632741	-0.746113
36376		0.639483	-0.592759	-0.356414	-0.335660	-85.239259	-58.624316	-0.744182
36377		0.639527	-0.592759	-0.356385	-0.335607	-85.235675	-58.616865	-0.743591
36378		0.639594	-0.592728	-0.356374	-0.335546	-85.226656	-58.610284	-0.743728
36379		0.639647	-0.592675	-0.356358	-0.335555	-85.210555	-58.609467	-0.755023
36380		0.639664	-0.592667	-0.356282	-0.335617	-85.196754	-58.607573	-0.775534
36381		0.639669	-0.592637	-0.356250	-0.335695	-85.183190	-58.611484	-0.793556
36382		0.639675	-0.592596	-0.356222	-0.335786	-85.167294	-58.616732	-0.813788
36383		0.639677	-0.592568	-0.356182	-0.335873	-85.153319	-58.620664	-0.833620
36384		0.639701	-0.592539	-0.356157	-0.335905	-85.141606	-58.620942	-0.845563
36385		0.639721	-0.592530	-0.356132	-0.335910	-85.135679	-58.618921	-0.851555
36386		0.639735	-0.592525	-0.356111	-0.335913	-85.131366	-58.617268	-0.856097
36387		0.639756	-0.592514	-0.356142	-0.335859	-85.133562	-58.615394	-0.846958
36388		0.639817	-0.592462	-0.356186	-0.335789	-85.127232	-58.613366	-0.839685
36389		0.639885	-0.592381	-0.356259	-0.335725	-85.117226	-58.614596	-0.832714
36390		0.639916	-0.592314	-0.356317	-0.335723	-85.108084	-58.620068	-0.832548
36391		0.639957	-0.592242	-0.356367	-0.335718	-85.096504	-58.624327	-0.834030
36392		0.639994	-0.592167	-0.356407	-0.335738	-85.082381	-58.629817	-0.840436
36393		0.640010	-0.592140	-0.356382	-0.335781	-85.071198	-58.631210	-0.853114
36394		0.639982	-0.592171	-0.356299	-0.335867	-85.066347	-58.630918	-0.871547
36395		0.639974	-0.592201	-0.356253	-0.335879	-85.067337	-58.627583	-0.876198
36396		0.639989	-0.592211	-0.356223	-0.335865	-85.065886	-58.623408	-0.878332
36397		0.640012	-0.592193	-0.356244	-0.335832	-85.064432	-58.622496	-0.874112
36398		0.640111	-0.592096	-0.356330	-0.335721	-85.052960	-58.620850	-0.862122
36399		0.640197	-0.592004	-0.356432	-0.335612	-85.044958	-58.620904	-0.846969
36400		0.640296	-0.591898	-0.356518	-0.335519	-85.030841	-58.620831	-0.838224
36401		0.640380	-0.591807	-0.356593	-0.335439	-85.018776	-58.620813	-0.830633
36402		0.640411	-0.591777	-0.356611	-0.335414	-85.013713	-58.620324	-0.829522
36403		0.640406	-0.591806	-0.356576	-0.335410	-85.016318	-58.616645	-0.830733
36404		0.640411	-0.591809	-0.356567	-0.335402	-85.016190	-58.615052	-0.830783
36405		0.640376	-0.591866	-0.356505	-0.335436	-85.021671	-58.612093	-0.836540
36406		0.640354	-0.591893	-0.356442	-0.335498	-85.018777	-58.611573	-0.849714
36407		0.640365	-0.591901	-0.356414	-0.335493	-85.016903	-58.608332	-0.852754
36408		0.640397	-0.591885	-0.356407	-0.335467	-85.012116	-58.605357	-0.853470
36409		0.640415	-0.591880	-0.356433	-0.335415	-85.015119	-58.603198	-0.844492
36410		0.640485	-0.591803	-0.356546	-0.335296	-85.012813	-58.603549	-0.824206
36411		0.640528	-0.591744	-0.356654	-0.335203	-85.014206	-58.605635	-0.804825
36412		0.640599	-0.591623	-0.356819	-0.335105	-85.007535	-58.612829	-0.784471
36413		0.640634	-0.591548	-0.356963	-0.335016	-85.009790	-58.618848	-0.761871
36414		0.640587	-0.591547	-0.357014	-0.335054	-85.016212	-58.627162	-0.757408
36415		0.640562	-0.591526	-0.357099	-0.335049	-85.023013	-58.634934	-0.745539
36416		0.640537	-0.591504	-0.357139	-0.335092	-85.022585	-58.642673	-0.746427
36417		0.640536	-0.591449	-0.357210	-0.335117	-85.017999	-58.651717	-0.745272
36418		0.640529	-0.591415	-0.357229	-0.335169	-85.011272	-58.658208	-0.752365
36419		0.640518	-0.591389	-0.357264	-0.335199	-85.009096	-58.664256	-0.753397
36420		0.640503	-0.591371	-0.357255	-0.335267	-85.002351	-58.669399	-0.764623
36421		0.640510	-0.591338	-0.357279	-0.335287	-84.996882	-58.673454	-0.767537
36422		0.640561	-0.591266	-0.357319	-0.335275	-84.983863	-58.676132	-0.770138
36423		0.640573	-0.591222	-0.357341	-0.335307	-84.975138	-58.681118	-0.776177
36424		0.640589	-0.591172	-0.357356	-0.335349	-84.963631	-58.686200	-0.785378
36425		0.640602	-0.591128	-0.357362	-0.335394	-84.952449	-58.690766	-0.795556
36426		0.640564	-0.591138	-0.357284	-0.335532	-84.942001	-58.695506	-0.821723
36427		0.640591	-0.591076	-0.357288	-0.335585	-84.925919	-58.700532	-0.835552
36428		0.640660	-0.590988	-0.357319	-0.335578	-84.907160	-58.702736	-0.842716
36429		0.640727	-0.590903	-0.357329	-0.335586	-84.886540	-58.704458	-0.854196
36430		0.640778	-0.590831	-0.357325	-0.335620	-84.866618	-58.706992	-0.869087
36431		0.640836	-0.590756	-0.357340	-0.335627	-84.848854	-58.708863	-0.878409
36432		0.640863	-0.590726	-0.357288	-0.335682	-84.832843	-58.708702	-0.897442
36433		0.640888	-0.590701	-0.357255	-0.335713	-84.821185	-58.708242	-0.909882
36434		0.640884	-0.590704	-0.357188	-0.335790	-84.811220	-58.708458	-0.928864
36435		0.640873	-0.590696	-0.357137	-0.335876	-84.800817	-58.711164	-0.947640
36436		0.640833	-0.590738	-0.357010	-0.336015	-84.791732	-58.711286	-0.977417
36437		0.640865	-0.590689	-0.356961	-0.336093	-84.770702	-58.713330	-1.001222
36438		0.640909	-0.590618	-0.356934	-0.336161	-84.747541	-58.716648	-1.023296
36439		0.640998	-0.590519	-0.356935	-0.336165	-84.721590	-58.716962	-1.038142
36440		0.641073	-0.590423	-0.356922	-0.336204	-84.694214	-58.718931	-1.058514
36441		0.641153	-0.590332	-0.356927	-0.336205	-84.671121	-58.719393	-1.071200
36442		0.641230	-0.590259	-0.356913	-0.336202	-84.650094	-58.717710	-1.083925
36443		0.641250	-0.590265	-0.356843	-0.336228	-84.641275	-58.713155	-1.097557
36444		0.641245	-0.590291	-0.356746	-0.336296	-84.633081	-58.709749	-1.117389
36445		0.641216	-0.590349	-0.356617	-0.336383	-84.628763	-58.705067	-1.139687
36446		0.641208	-0.590385	-0.356511	-0.336449	-84.622005	-58.700552	-1.159289
36447		0.641239	-0.590404	-0.356412	-0.336461	-84.612781	-58.692032	-1.174275
36448		0.641268	-0.590407	-0.356333	-0.336483	-84.602091	-58.686262	-1.189363
36449		0.641326	-0.590376	-0.356304	-0.336459	-84.590022	-58.681260	-1.196435
36450		0.641377	-0.590341	-0.356265	-0.336464	-84.575375	-58.677854	-1.208558
36451		0.641431	-0.590293	-0.356267	-0.336443	-84.563315	-58.676024	-1.213124
36452		0.641436	-0.590310	-0.356203	-0.336473	-84.558165	-58.672493	-1.224590
36453		0.641432	-0.590339	-0.356152	-0.336483	-84.558348	-58.668381	-1.229919
36454		0.641408	-0.590378	-0.356110	-0.336505	-84.562190	-58.666367	-1.233674
36455		0.641390	-0.590428	-0.356036	-0.336530	-84.564414	-58.661396	-1.241297
36456		0.641367	-0.590478	-0.355974	-0.336552	-84.568266	-58.657402	-1.246695
36457		0.641342	-0.590522	-0.355932	-0.336566	-84.573753	-58.654684	-1.248689
36458		0.641311	-0.590562	-0.355881	-0.336608	-84.576344	-58.653502	-1.255828
36459		0.641307	-0.590558	-0.355886	-0.336619	-84.575716	-58.654974	-1.256830
36460		0.641296	-0.590557	-0.355900	-0.336627	-84.577395	-58.657065	-1.255435
36461		0.641292	-0.590543	-0.355940	-0.336617	-84.579619	-58.660004	-1.249671
36462		0.641270	-0.590538	-0.355949	-0.336657	-84.579098	-58.664435	-1.253046
36463		0.641256	-0.590517	-0.356007	-0.336659	-84.581736	-58.670275	-1.246752
36464		0.641244	-0.590502	-0.356045	-0.336668	-84.583219	-58.674717	-1.243410
36465		0.641228	-0.590481	-0.356119	-0.336657	-84.588309	-58.680987	-1.232986
36466		0.641216	-0.590444	-0.356218	-0.336640	-84.593047	-58.689068	-1.219992
36467		0.641191	-0.590431	-0.356296	-0.336627	-84.601000	-58.695495	-1.207403
36468		0.641163	-0.590406	-0.356367	-0.336651	-84.604190	-58.704493	-1.201654
36469		0.641144	-0.590368	-0.356472	-0.336642	-84.609305	-58.713936	-1.188707
36470		0.641154	-0.590305	-0.356550	-0.336652	-84.603859	-58.722298	-1.185833
36471		0.641152	-0.590258	-0.356613	-0.336670	-84.600393	-58.729963	-1.183980
36472		0.641123	-0.590231	-0.356672	-0.336710	-84.601232	-58.739252	-1.182311
36473		0.641070	-0.590223	-0.356710	-0.336785	-84.603490	-58.749651	-1.184982
36474		0.641006	-0.590214	-0.356750	-0.336880	-84.605494	-58.761997	-1.189618
36475		0.640954	-0.590200	-0.356782	-0.336969	-84.605297	-58.773025	-1.195588
36476		0.640941	-0.590149	-0.356865	-0.336996	-84.603402	-58.783402	-1.192101
36477		0.640919	-0.590118	-0.356921	-0.337032	-84.602794	-58.792031	-1.191035
36478		0.640890	-0.590118	-0.356956	-0.337051	-84.607511	-58.797126	-1.187139
36479		0.640885	-0.590099	-0.357006	-0.337041	-84.609757	-58.801122	-1.180519
36480		0.640868	-0.590091	-0.357035	-0.337056	-84.611671	-58.805295	-1.178360
36481		0.640876	-0.590046	-0.357090	-0.337062	-84.607785	-58.811117	-1.176207
36482		0.640862	-0.590021	-0.357083	-0.337139	-84.599187	-58.817255	-1.189242
36483		0.640843	-0.589977	-0.357124	-0.337210	-84.592436	-58.827457	-1.196439
36484		0.640790	-0.589981	-0.357088	-0.337343	-84.586429	-58.835752	-1.215935
36485		0.640739	-0.589978	-0.357099	-0.337430	-84.586207	-58.844663	-1.223596
36486		0.640678	-0.589977	-0.357099	-0.337548	-84.584301	-58.855186	-1.236280
36487		0.640623	-0.589986	-0.357112	-0.337624	-84.587351	-58.863174	-1.240798
36488		0.640575	-0.589982	-0.357145	-0.337687	-84.590185	-58.872060	-1.242497
36489		0.640522	-0.589995	-0.357175	-0.337733	-84.597343	-58.879082	-1.240233
36490		0.640473	-0.590000	-0.357208	-0.337782	-84.602562	-58.886632	-1.239300
36491		0.640438	-0.589991	-0.357272	-0.337796	-84.609337	-58.894178	-1.231259
36492		0.640392	-0.589976	-0.357311	-0.337870	-84.609946	-58.904553	-1.234573
36493		0.640357	-0.589931	-0.357412	-0.337906	-84.612243	-58.917570	-1.227969
36494		0.640380	-0.589824	-0.357549	-0.337905	-84.603843	-58.930686	-1.220631
36495		0.640359	-0.589746	-0.357646	-0.337978	-84.596283	-58.946473	-1.223485
36496		0.640327	-0.589682	-0.357738	-0.338054	-84.591564	-58.962155	-1.225476
36497		0.640288	-0.589633	-0.357810	-0.338136	-84.588082	-58.976474	-1.229141
36498		0.640246	-0.589577	-0.357902	-0.338216	-84.585414	-58.992515	-1.230369
36499		0.640154	-0.589589	-0.357914	-0.338355	-84.588438	-59.006099	-1.241243
36500		0.640073	-0.589602	-0.357913	-0.338487	-84.589952	-59.017746	-1.253349
36501		0.639997	-0.589613	-0.357937	-0.338589	-84.594633	-59.029129	-1.258624
36502		0.639917	-0.589632	-0.357930	-0.338713	-84.596990	-59.039555	-1.269987
36503		0.639872	-0.589620	-0.357971	-0.338776	-84.598815	-59.049169	-1.271525
36504		0.639807	-0.589641	-0.357970	-0.338862	-84.603028	-59.056856	-1.277692
36505		0.639769	-0.589635	-0.358026	-0.338886	-84.609411	-59.064424	-1.271439
36506		0.639733	-0.589628	-0.358094	-0.338893	-84.617243	-59.071747	-1.261763
36507		0.639679	-0.589646	-0.358131	-0.338925	-84.626904	-59.078140	-1.256142
36508		0.639613	-0.589676	-0.358113	-0.339018	-84.630771	-59.084803	-1.264732
36509		0.639562	-0.589700	-0.358122	-0.339062	-84.637932	-59.089710	-1.264125
36510		0.639498	-0.589731	-0.358095	-0.339157	-84.640865	-59.095543	-1.274230
36511		0.639467	-0.589736	-0.358077	-0.339226	-84.638512	-59.100027	-1.283839
36512		0.639447	-0.589733	-0.358071	-0.339276	-84.636213	-59.103769	-1.290560
36513		0.639442	-0.589716	-0.358049	-0.339338	-84.627671	-59.107155	-1.303412
36514		0.639480	-0.589640	-0.358100	-0.339344	-84.614796	-59.112473	-1.306846
36515		0.639473	-0.589612	-0.358098	-0.339407	-84.606266	-59.117973	-1.318015
36516		0.639412	-0.589629	-0.358041	-0.339554	-84.600432	-59.125509	-1.340703
36517		0.639373	-0.589636	-0.358022	-0.339635	-84.598466	-59.130777	-1.351464
36518		0.639334	-0.589644	-0.357973	-0.339746	-84.591824	-59.135971	-1.370494
36519		0.639280	-0.589654	-0.357942	-0.339864	-84.588170	-59.143440	-1.386874
36520		0.639238	-0.589649	-0.357898	-0.339998	-84.578527	-59.151088	-1.409372
36521		0.639250	-0.589588	-0.357918	-0.340059	-84.564633	-59.158364	-1.421441
36522		0.639274	-0.589510	-0.357955	-0.340110	-84.548673	-59.166381	-1.432142
36523		0.639284	-0.589441	-0.357999	-0.340165	-84.536029	-59.175457	-1.440871
36524		0.639327	-0.589321	-0.358101	-0.340184	-84.518787	-59.186890	-1.443601
36525		0.639377	-0.589201	-0.358198	-0.340196	-84.500841	-59.197190	-1.446440
36526		0.639403	-0.589080	-0.358306	-0.340243	-84.483889	-59.211650	-1.451206
36527		0.639462	-0.588912	-0.358449	-0.340272	-84.459752	-59.228005	-1.455229
36528		0.639539	-0.588726	-0.358626	-0.340264	-84.436332	-59.244158	-1.452155
36529		0.639583	-0.588563	-0.358792	-0.340287	-84.417156	-59.262183	-1.450798
36530		0.639659	-0.588372	-0.358971	-0.340285	-84.392612	-59.279242	-1.448782
36531		0.639779	-0.588130	-0.359213	-0.340225	-84.364474	-59.297026	-1.437619
36532		0.639976	-0.587826	-0.359497	-0.340078	-84.327572	-59.311235	-1.419266
36533		0.640198	-0.587485	-0.359871	-0.339854	-84.295189	-59.327271	-1.382760
36534		0.640452	-0.587130	-0.360267	-0.339570	-84.263213	-59.340262	-1.338256
36535		0.640819	-0.586648	-0.360834	-0.339107	-84.225539	-59.353812	-1.264345
36536		0.641324	-0.586011	-0.361621	-0.338416	-84.182677	-59.368600	-1.151594
36537		0.641997	-0.585227	-0.362583	-0.337464	-84.131167	-59.377378	-1.002831
36538		0.642918	-0.584255	-0.363753	-0.336135	-84.066873	-59.373154	-0.805874
36539		0.644101	-0.583097	-0.365195	-0.334311	-84.002706	-59.352159	-0.536384
36540		0.645529	-0.581829	-0.366782	-0.332021	-83.939754	-59.304905	-0.207683
36541		0.647129	-0.580586	-0.368448	-0.329227	-83.905056	-59.221962	0.193367
36542		0.648862	-0.579398	-0.370076	-0.326066	-83.886751	-59.104048	0.635902
36543		0.650778	-0.578228	-0.371735	-0.322420	-83.886726	-58.947794	1.138398
36544		0.652917	-0.577024	-0.373397	-0.318304	-83.887506	-58.752291	1.686370
36545		0.655296	-0.575790	-0.374973	-0.313764	-83.875778	-58.513268	2.259922
36546		0.657946	-0.574513	-0.376417	-0.308791	-83.841415	-58.226132	2.849483
36547		0.660803	-0.573296	-0.377647	-0.303404	-83.798578	-57.884841	3.453867
36548		0.663751	-0.572265	-0.378533	-0.297758	-83.756370	-57.489814	4.051032
36549		0.666778	-0.571438	-0.379079	-0.291831	-83.719596	-57.039864	4.645897
36550		0.669816	-0.570999	-0.379080	-0.285666	-83.702299	-56.517810	5.223175
36551		0.672802	-0.570979	-0.378591	-0.279267	-83.717642	-55.928977	5.793707
36552		0.675668	-0.571462	-0.377550	-0.272689	-83.774995	-55.271495	6.350841
36553		0.678478	-0.572317	-0.376096	-0.265844	-83.862095	-54.551690	6.907703
36554		0.681269	-0.573482	-0.374237	-0.258721	-83.965844	-53.770570	7.458522
36555		0.684169	-0.574720	-0.372169	-0.251197	-84.059400	-52.938528	8.017987
36556		0.687226	-0.575954	-0.369910	-0.243236	-84.129844	-52.055725	8.584646
36557		0.690524	-0.577042	-0.367505	-0.234818	-84.153882	-51.127204	9.153393
36558		0.694017	-0.578072	-0.364848	-0.225964	-84.139183	-50.144917	9.717606
36559		0.697624	-0.579097	-0.361965	-0.216674	-84.102873	-49.111252	10.288443
36560		0.701207	-0.580287	-0.358723	-0.207106	-84.063716	-48.025332	10.848438
36561		0.704720	-0.581624	-0.355221	-0.197236	-84.030698	-46.894462	11.412737
36562		0.708076	-0.583213	-0.351375	-0.187153	-84.015285	-45.717001	11.970747
36563		0.711262	-0.584999	-0.347268	-0.176880	-84.015348	-44.503054	12.526308
36564		0.714293	-0.586936	-0.342918	-0.166431	-84.023838	-43.255775	13.076528
36565		0.717257	-0.588897	-0.338358	-0.155745	-84.021703	-41.975622	13.622649
36566		0.720288	-0.590696	-0.333622	-0.144776	-83.980004	-40.665712	14.161446
36567		0.723432	-0.592258	-0.328682	-0.133587	-83.884945	-39.330538	14.681966
36568		0.726711	-0.593573	-0.323497	-0.122116	-83.734717	-37.962591	15.187932
36569		0.729950	-0.594836	-0.318003	-0.110535	-83.559746	-36.566323	15.671189
36570		0.733041	-0.596179	-0.312169	-0.098855	-83.382323	-35.137121	16.136899
36571		0.735950	-0.597606	-0.306024	-0.087136	-83.206645	-33.682045	16.584134
36572		0.738720	-0.599029	-0.299646	-0.075292	-83.025287	-32.202537	17.025382
36573		0.741344	-0.600424	-0.293041	-0.063460	-82.835033	-30.710057	17.449023
36574		0.743905	-0.601661	-0.286282	-0.051490	-82.622107	-29.202172	17.871681
36575		0.746502	-0.602611	-0.279359	-0.039409	-82.366162	-27.683124	18.286561
36576		0.749161	-0.603236	-0.272259	-0.027190	-82.062124	-26.150853	18.695932
36577		0.751824	-0.603582	-0.265003	-0.014932	-81.720018	-24.613623	19.097577
36578		0.754473	-0.603686	-0.257541	-0.002574	-81.344058	-23.061770	19.495564
36579		0.757036	-0.603618	-0.249892	0.009814	-80.946994	-21.500317	19.889733
36580		0.759333	-0.603613	-0.242013	0.022211	-80.562454	-19.920925	20.281825
36581		0.761250	-0.603790	-0.233970	0.034558	-80.211081	-18.329847	20.674950
36582		0.762811	-0.604096	-0.225804	0.046905	-79.886871	-16.727584	21.075086
36583		0.764171	-0.604307	-0.217585	0.059272	-79.559369	-15.123931	21.484514
36584		0.765473	-0.604228	-0.209327	0.071710	-79.200354	-13.521500	21.906120
36585		0.766857	-0.603666	-0.201039	0.084271	-78.782260	-11.922753	22.344136
36586		0.768362	-0.602583	-0.192654	0.096945	-78.296889	-10.324416	22.794718
36587		0.769921	-0.601080	-0.184111	0.109665	-77.756641	-8.723481	23.251316
36588		0.771391	-0.599291	-0.175497	0.122502	-77.184466	-7.118679	23.731053
36589		0.772589	-0.597467	-0.166786	0.135357	-76.614602	-5.507215	24.226378
36590		0.773392	-0.595741	-0.158059	0.148242	-76.067649	-3.890801	24.745374
36591		0.773801	-0.594143	-0.149311	0.161035	-75.546328	-2.276245	25.276005
36592		0.773862	-0.592610	-0.140526	0.173792	-75.039694	-0.659665	25.821265
36593		0.773648	-0.591064	-0.131767	0.186414	-74.538079	0.944441	26.376178
36594		0.773266	-0.589383	-0.123061	0.198854	-74.024002	2.526630	26.938526
36595		0.772818	-0.587455	-0.114424	0.211083	-73.481365	4.079794	27.507523
36596		0.772335	-0.585237	-0.105857	0.223137	-72.903113	5.604575	28.088012
36597		0.771808	-0.582772	-0.097341	0.234976	-72.293774	7.100914	28.675481
36598		0.771201	-0.580140	-0.088927	0.246532	-71.665493	8.562375	29.267068
36599		0.770484	-0.577424	-0.080562	0.257771	-71.027436	9.993845	29.855019
36600		0.769586	-0.574719	-0.072299	0.268716	-70.393538	11.396195	30.443762
36601		0.768435	-0.572152	-0.064212	0.279333	-69.782805	12.765208	31.032163
36602		0.766984	-0.569831	-0.056378	0.289569	-69.211895	14.094924	31.615961
36603		0.765259	-0.567773	-0.048782	0.299388	-68.682454	15.385138	32.188240
36604		0.763355	-0.565885	-0.041400	0.308788	-68.181010	16.634823	32.746531
36605		0.761323	-0.564106	-0.034222	0.317806	-67.698240	17.845134	33.293322
36606		0.759157	-0.562472	-0.027294	0.326436	-67.240335	19.012943	33.828447
36607		0.756948	-0.560887	-0.020559	0.334683	-66.792534	20.139903	34.349423
36608		0.754675	-0.559359	-0.014002	0.342618	-66.355006	21.232893	34.861637
36609		0.752388	-0.557829	-0.007619	0.350259	-65.918933	22.290662	35.367265
36610		0.750096	-0.556318	-0.001420	0.357581	-65.488010	23.311315	35.862592
36611		0.747837	-0.554804	0.004563	0.364569	-65.059892	24.289927	36.347412
36612		0.745672	-0.553244	0.010369	0.371197	-64.628217	25.225941	36.816690
36613		0.743676	-0.551590	0.015985	0.377411	-64.187499	26.112052	37.265535
36614		0.741821	-0.549913	0.021423	0.383195	-63.748510	26.951221	37.687961
36615		0.740054	-0.548326	0.026643	0.388522	-63.329656	27.743158	38.077987
36616		0.738294	-0.546940	0.031539	0.393426	-62.949317	28.485184	38.439552
36617		0.736546	-0.545757	0.036091	0.397927	-62.608567	29.176978	38.773955
36618		0.734830	-0.544768	0.040283	0.402033	-62.307062	29.816963	39.080913
36619		0.733171	-0.543942	0.044141	0.405757	-62.040559	30.407260	39.360084
36620		0.731615	-0.543213	0.047639	0.409133	-61.799372	30.943943	39.617273
36621		0.730264	-0.542486	0.050851	0.412114	-61.570132	31.426273	39.845315
36622		0.729167	-0.541675	0.053775	0.414742	-61.339594	31.852391	40.051556
36623		0.728348	-0.540736	0.056483	0.417042	-61.099518	32.228564	40.236089
36624		0.727759	-0.539792	0.058909	0.418953	-60.871429	32.550084	40.389515
36625		0.727279	-0.538996	0.061004	0.420509	-60.678930	32.822535	40.511301
36626		0.726830	-0.538478	0.062680	0.421700	-60.543584	33.043014	40.598657
36627		0.726411	-0.538237	0.063907	0.422543	-60.465724	33.209567	40.654239
36628		0.726055	-0.538233	0.064685	0.423042	-60.439554	33.320360	40.679367
36629		0.725798	-0.538409	0.065010	0.423210	-60.456470	33.373099	40.677775
36630		0.725644	-0.538757	0.064937	0.423042	-60.514343	33.372238	40.646567
36631		0.725636	-0.539217	0.064484	0.422540	-60.603860	33.316649	40.587313
36632		0.725757	-0.539774	0.063680	0.421741	-60.721116	33.210897	40.504463
36633		0.726004	-0.540434	0.062539	0.420639	-60.866816	33.056251	40.396666
36634		0.726354	-0.541231	0.060989	0.419237	-61.046523	32.847636	40.267112
36635		0.726796	-0.542173	0.059050	0.417527	-61.261360	32.586890	40.114343
36636		0.727398	-0.543183	0.056741	0.415481	-61.499350	32.270108	39.937713
36637		0.728261	-0.544107	0.054148	0.413100	-61.735561	31.897999	39.740161
36638		0.729431	-0.544855	0.051317	0.410401	-61.955184	31.472060	39.525310
36639		0.730903	-0.545433	0.048249	0.407376	-62.158760	30.992398	39.292660
36640		0.732590	-0.545914	0.044948	0.404067	-62.355958	30.466130	39.044923
36641		0.734359	-0.546457	0.041319	0.400491	-62.571523	29.893508	38.784281
36642		0.736110	-0.547161	0.037318	0.396691	-62.819407	29.278041	38.515684
36643		0.737787	-0.548067	0.032926	0.392694	-63.105063	28.622010	38.243196
36644		0.739405	-0.549131	0.028185	0.388511	-63.420925	27.928382	37.968834
36645		0.740969	-0.550319	0.023122	0.384162	-63.760902	27.199351	37.695859
36646		0.742551	-0.551528	0.017811	0.379630	-64.108892	26.436363	37.422523
36647		0.744159	-0.552714	0.012324	0.374945	-64.456810	25.646396	37.150453
36648		0.745821	-0.553863	0.006682	0.370057	-64.803096	24.827537	36.873455
36649		0.747482	-0.555029	0.000888	0.364985	-65.155173	23.983941	36.592736
36650		0.749070	-0.556325	-0.005083	0.359681	-65.530533	23.115412	36.301891
36651		0.750527	-0.557864	-0.011267	0.354078	-65.946677	22.218610	35.993841
36652		0.751854	-0.559632	-0.017696	0.348159	-66.402186	21.288971	35.670870
36653		0.753012	-0.561637	-0.024431	0.341964	-66.898598	20.323836	35.342321
36654		0.754050	-0.563837	-0.031500	0.335416	-67.431344	19.313343	35.004867
36655		0.755067	-0.566012	-0.038811	0.328631	-67.966432	18.264751	34.671641
36656		0.756150	-0.568012	-0.046295	0.321646	-68.481269	17.180695	34.346199
36657		0.757320	-0.569810	-0.053836	0.314460	-68.969779	16.070713	34.021994
36658		0.758675	-0.571285	-0.061403	0.307043	-69.414957	14.930604	33.695534
36659		0.760135	-0.572545	-0.068966	0.299384	-69.831799	13.766978	33.361169
36660		0.761557	-0.573785	-0.076632	0.291427	-70.250893	12.574732	33.016987
36661		0.762680	-0.575337	-0.084523	0.283129	-70.722248	11.353494	32.662757
36662		0.763420	-0.577348	-0.092726	0.274339	-71.269980	10.090335	32.289946
36663		0.763739	-0.579757	-0.101235	0.265211	-71.885206	8.793966	31.917740
36664		0.763870	-0.582235	-0.109996	0.255745	-72.521551	7.455890	31.548688
36665		0.764027	-0.584417	-0.118895	0.246136	-73.125458	6.085625	31.197952
36666		0.764438	-0.585969	-0.127868	0.236484	-73.649058	4.683451	30.871968
36667		0.765204	-0.586755	-0.136873	0.226819	-74.073084	3.250583	30.568364
36668		0.766296	-0.586813	-0.145856	0.217181	-74.402050	1.796610	30.283442
36669		0.767472	-0.586408	-0.154968	0.207601	-74.679017	0.321518	30.027309
36670		0.768531	-0.585857	-0.164243	0.197878	-74.950929	-1.180051	29.782057
36671		0.769494	-0.585147	-0.173646	0.187961	-75.215385	-2.709346	29.540437
36672		0.770362	-0.584243	-0.183182	0.177898	-75.468968	-4.264592	29.307222
36673		0.771150	-0.583116	-0.192789	0.167739	-75.706013	-5.837934	29.082065
36674		0.772046	-0.581516	-0.202407	0.157530	-75.889728	-7.430408	28.861914
36675		0.773045	-0.579404	-0.212000	0.147471	-76.013934	-9.025852	28.659854
36676		0.774071	-0.576916	-0.221556	0.137458	-76.096787	-10.625937	28.464640
36677		0.775044	-0.574132	-0.231096	0.127565	-76.151193	-12.224393	28.283930
36678		0.775920	-0.571157	-0.240597	0.117644	-76.190114	-13.826434	28.102608
36679		0.776667	-0.567999	-0.250104	0.107767	-76.217385	-15.430651	27.930507
36680		0.777333	-0.564612	-0.259602	0.097842	-76.225692	-17.044168	27.756487
36681		0.777973	-0.560944	-0.268985	0.088022	-76.201913	-18.649353	27.583511
36682		0.778628	-0.556960	-0.278210	0.078308	-76.137735	-20.243814	27.405318
36683		0.779267	-0.552767	-0.287146	0.068840	-76.039676	-21.803261	27.223591
36684		0.779798	-0.548549	-0.295755	0.059487	-75.929207	-23.328060	27.025846
36685		0.780130	-0.544496	-0.303976	0.050197	-75.827292	-24.810407	26.806035
36686		0.780251	-0.540594	-0.311908	0.040992	-75.737490	-26.257934	26.574598
36687		0.780174	-0.536835	-0.319565	0.031854	-75.658055	-27.673528	26.330528
36688		0.779950	-0.533138	-0.326995	0.022728	-75.578925	-29.067843	26.070303
36689		0.779611	-0.529437	-0.334241	0.013659	-75.493070	-30.443752	25.799368
36690		0.779237	-0.525590	-0.341354	0.004619	-75.381850	-31.812233	25.513696
36691		0.778878	-0.521528	-0.348338	-0.004314	-75.234134	-33.170026	25.216476
36692		0.778510	-0.517248	-0.355250	-0.013244	-75.051748	-34.529618	24.901461
36693		0.778106	-0.512802	-0.362069	-0.022190	-74.839036	-35.888773	24.565250
36694		0.777568	-0.508350	-0.368767	-0.031287	-74.615045	-37.249832	24.197610
36695		0.776808	-0.504030	-0.375336	-0.040569	-74.398623	-38.610588	23.799966
36696		0.775813	-0.499824	-0.381813	-0.050087	-74.188802	-39.978524	23.370241
36697		0.774616	-0.495707	-0.388167	-0.059760	-73.978438	-41.346221	22.910392
36698		0.773235	-0.491649	-0.394395	-0.069584	-73.760967	-42.714209	22.417473
36699		0.771709	-0.487632	-0.400453	-0.079485	-73.528617	-44.073910	21.891224
36700		0.770060	-0.483616	-0.406353	-0.089445	-73.273793	-45.426090	21.329966
36701		0.768277	-0.479675	-0.412029	-0.099470	-72.999066	-46.763436	20.727156
36702		0.766316	-0.475837	-0.417532	-0.109572	-72.712587	-48.090415	20.088120
36703		0.764148	-0.472181	-0.422825	-0.119758	-72.421927	-49.402171	19.411426
36704		0.761767	-0.468711	-0.427898	-0.130093	-72.122618	-50.702637	18.686880
36705		0.759182	-0.465421	-0.432752	-0.140537	-71.811933	-51.989137	17.916020
36706		0.756412	-0.462238	-0.437440	-0.151073	-71.480816	-53.267145	17.099511
36707		0.753491	-0.459168	-0.441942	-0.161567	-71.129187	-54.525220	16.247516
36708		0.750415	-0.456202	-0.446259	-0.172075	-70.750281	-55.767484	15.349622
36709		0.747213	-0.453377	-0.450367	-0.182460	-70.350502	-56.980640	14.419682
36710		0.743910	-0.450646	-0.454311	-0.192661	-69.926531	-58.165559	13.465138
36711		0.740583	-0.447977	-0.458064	-0.202561	-69.469725	-59.311420	12.489928
36712		0.737269	-0.445332	-0.461666	-0.212082	-68.979414	-60.416588	11.504737
36713		0.734006	-0.442730	-0.465121	-0.221105	-68.465519	-61.471924	10.527848
36714		0.730793	-0.440203	-0.468444	-0.229617	-67.938848	-62.477132	9.568788
36715		0.727667	-0.437808	-0.471594	-0.237536	-67.413839	-63.420969	8.643209
36716		0.724627	-0.435600	-0.474562	-0.244865	-66.906603	-64.301397	7.762200
36717		0.721729	-0.433598	-0.477327	-0.251513	-66.429330	-65.109350	6.944189
36718		0.718968	-0.431873	-0.479883	-0.257453	-66.010404	-65.841328	6.213568
36719		0.716321	-0.430516	-0.482191	-0.262740	-65.671621	-66.496304	5.578790
36720		0.713785	-0.429586	-0.484226	-0.267382	-65.434118	-67.071652	5.054892
36721		0.711395	-0.429060	-0.485984	-0.271375	-65.300860	-67.566819	4.647909
36722		0.709169	-0.428914	-0.487481	-0.274725	-65.275273	-67.984141	4.363581
36723		0.707140	-0.429029	-0.488778	-0.277460	-65.337694	-68.332967	4.192709
36724		0.705351	-0.429306	-0.489898	-0.279602	-65.465278	-68.617724	4.120476
36725		0.703770	-0.429647	-0.490932	-0.281243	-65.640762	-68.855957	4.132471
36726		0.702442	-0.429936	-0.491919	-0.282394	-65.836405	-69.052964	4.211806
36727		0.701422	-0.430005	-0.492965	-0.283000	-66.027190	-69.217677	4.355885
36728		0.700746	-0.429769	-0.494117	-0.283023	-66.200007	-69.352848	4.563900
36729		0.700447	-0.429154	-0.495394	-0.282464	-66.334914	-69.461369	4.823079
36730		0.700512	-0.428257	-0.496716	-0.281341	-66.442846	-69.534467	5.132362
36731		0.700872	-0.427220	-0.497966	-0.279806	-66.529277	-69.569839	5.468558
36732		0.701383	-0.426253	-0.499030	-0.278098	-66.612691	-69.570677	5.807532
36733		0.701975	-0.425561	-0.499794	-0.276287	-66.724700	-69.527473	6.153763
36734		0.702575	-0.425233	-0.500212	-0.274506	-66.869341	-69.444275	6.490686
36735		0.703205	-0.425273	-0.500252	-0.272753	-67.039368	-69.316880	6.810394
36736		0.703881	-0.425622	-0.499945	-0.271021	-67.222751	-69.148942	7.107648
36737		0.704662	-0.426168	-0.499327	-0.269269	-67.395083	-68.942463	7.372690
36738		0.705563	-0.426895	-0.498409	-0.267449	-67.557897	-68.695730	7.612833
36739		0.706579	-0.427778	-0.497192	-0.265615	-67.699160	-68.413028	7.813762
36740		0.707694	-0.428830	-0.495673	-0.263786	-67.821580	-68.095597	7.975114
36741		0.708827	-0.430126	-0.493839	-0.262066	-67.937914	-67.749234	8.092944
36742		0.709949	-0.431672	-0.491746	-0.260418	-68.065060	-67.377529	8.187294
36743		0.711059	-0.433415	-0.489422	-0.258870	-68.192302	-66.986233	8.250532
36744		0.712167	-0.435363	-0.486865	-0.257371	-68.326143	-66.571578	8.292274
36745		0.713257	-0.437474	-0.484135	-0.255919	-68.467788	-66.140608	8.318669
36746		0.714340	-0.439724	-0.481255	-0.254470	-68.617962	-65.692929	8.336881
36747		0.715426	-0.442034	-0.478288	-0.253006	-68.769309	-65.235090	8.349043
36748		0.716541	-0.444357	-0.475262	-0.251479	-68.917314	-64.767114	8.360170
36749		0.717652	-0.446662	-0.472253	-0.249893	-69.067833	-64.297891	8.379552
36750		0.718759	-0.448969	-0.469244	-0.248240	-69.223474	-63.824904	8.408233
36751		0.719875	-0.451191	-0.466294	-0.246529	-69.371184	-63.355955	8.442029
36752		0.721088	-0.453235	-0.463420	-0.244646	-69.496557	-62.885563	8.485557
36753		0.722378	-0.455058	-0.460665	-0.242651	-69.593152	-62.422974	8.532534
36754		0.723736	-0.456677	-0.458069	-0.240470	-69.676009	-61.966851	8.603217
36755		0.725145	-0.458135	-0.455602	-0.238123	-69.749572	-61.514939	8.695896
36756		0.726616	-0.459506	-0.453181	-0.235606	-69.817717	-61.057130	8.806290
36757		0.728132	-0.460841	-0.450776	-0.232916	-69.888390	-60.589474	8.936938
36758		0.729711	-0.462209	-0.448302	-0.230020	-69.965390	-60.100047	9.086303
36759		0.731313	-0.463677	-0.445724	-0.226968	-70.056411	-59.588051	9.250512
36760		0.732940	-0.465348	-0.442950	-0.223708	-70.173249	-59.038810	9.433754
36761		0.734571	-0.467243	-0.439956	-0.220291	-70.313922	-58.453627	9.626991
36762		0.736229	-0.469390	-0.436709	-0.216621	-70.483288	-57.821781	9.839528
36763		0.737926	-0.471798	-0.433146	-0.212737	-70.672191	-57.139839	10.056475
36764		0.739668	-0.474551	-0.429182	-0.208558	-70.889837	-56.392286	10.283392
36765		0.741460	-0.477602	-0.424815	-0.204120	-71.124176	-55.582757	10.509114
36766		0.743323	-0.480944	-0.420043	-0.199318	-71.377083	-54.703922	10.744384
36767		0.745206	-0.484616	-0.414878	-0.194146	-71.658165	-53.756417	10.994554
36768		0.747131	-0.488573	-0.409333	-0.188517	-71.961972	-52.736474	11.265550
36769		0.749091	-0.492741	-0.403468	-0.182435	-72.280010	-51.651777	11.555948
36770		0.751111	-0.497056	-0.397284	-0.175876	-72.600321	-50.502251	11.861728
36771		0.753194	-0.501373	-0.390872	-0.168946	-72.902570	-49.307121	12.169680
36772		0.755432	-0.505539	-0.384243	-0.161587	-73.162062	-48.066047	12.475699
36773		0.757787	-0.509512	-0.377451	-0.153906	-73.376859	-46.793263	12.773951
36774		0.760238	-0.513312	-0.370495	-0.145885	-73.553236	-45.487557	13.070445
36775		0.762693	-0.517068	-0.363290	-0.137698	-73.704696	-44.151325	13.348118
36776		0.765091	-0.520890	-0.355781	-0.129340	-73.848113	-42.777558	13.611163
36777		0.767378	-0.524804	-0.348012	-0.120826	-73.993122	-41.371119	13.865385
36778		0.769603	-0.528723	-0.340008	-0.112059	-74.130319	-39.929014	14.118867
36779		0.771795	-0.532540	-0.331835	-0.103049	-74.248067	-38.460280	14.372137
36780		0.773956	-0.536242	-0.323476	-0.093811	-74.344365	-36.964662	14.622744
36781		0.776058	-0.539788	-0.315002	-0.084484	-74.417244	-35.459382	14.863438
36782		0.778091	-0.543167	-0.306450	-0.075047	-74.469440	-33.946489	15.101088
36783		0.779980	-0.546448	-0.297854	-0.065643	-74.513174	-32.437596	15.329538
36784		0.781714	-0.549628	-0.289253	-0.056249	-74.551460	-30.934608	15.555268
36785		0.783345	-0.552631	-0.280669	-0.046855	-74.573885	-29.439726	15.778416
36786		0.784940	-0.555371	-0.272097	-0.037345	-74.568841	-27.946111	16.007287
36787		0.786497	-0.557852	-0.263546	-0.027718	-74.537587	-26.454128	16.243974
36788		0.788012	-0.560085	-0.254991	-0.017938	-74.481156	-24.958675	16.491474
36789		0.789421	-0.562182	-0.246375	-0.008094	-74.412446	-23.458661	16.740854
36790		0.790625	-0.564268	-0.237719	0.001858	-74.351386	-21.949896	17.002209
36791		0.791631	-0.566320	-0.229050	0.011793	-74.294965	-20.443784	17.265307
36792		0.792468	-0.568268	-0.220440	0.021715	-74.235975	-18.947617	17.534533
36793		0.793223	-0.569980	-0.211961	0.031522	-74.157495	-17.477535	17.803283
36794		0.793945	-0.571394	-0.203612	0.041263	-74.050570	-16.031059	18.075591
36795		0.794612	-0.572572	-0.195350	0.050910	-73.921762	-14.605088	18.347641
36796		0.795148	-0.573639	-0.187143	0.060467	-73.787421	-13.193419	18.620184
36797		0.795499	-0.574674	-0.179015	0.069885	-73.659120	-11.799635	18.891632
36798		0.795610	-0.575786	-0.170872	0.079232	-73.548343	-10.407841	19.162451
36799		0.795562	-0.576835	-0.162788	0.088563	-73.438051	-9.023759	19.441096
36800		0.795449	-0.577677	-0.154760	0.097973	-73.307854	-7.643833	19.734858
36801		0.795292	-0.578293	-0.146813	0.107397	-73.155031	-6.275194	20.040162
36802		0.795028	-0.578771	-0.138942	0.116834	-72.991396	-4.915383	20.357901
36803		0.794663	-0.579110	-0.131208	0.126199	-72.818045	-3.575613	20.684758
36804		0.794227	-0.579278	-0.123619	0.135497	-72.629916	-2.257039	21.022167
36805		0.793729	-0.579276	-0.116208	0.144671	-72.427451	-0.966469	21.367210
36806		0.793207	-0.579065	-0.108972	0.153722	-72.204472	0.295401	21.720288
36807		0.792655	-0.578699	-0.101863	0.162575	-71.966431	1.528854	22.071353
36808		0.792093	-0.578157	-0.094862	0.171244	-71.709870	2.735963	22.420841
36809		0.791525	-0.577458	-0.088003	0.179684	-71.437575	3.911062	22.767104
36810		0.790985	-0.576583	-0.081299	0.187845	-71.147151	5.048786	23.106402
36811		0.790459	-0.575577	-0.074780	0.195688	-70.845014	6.145093	23.436717
36812		0.789837	-0.574593	-0.068447	0.203264	-70.552242	7.207586	23.761627
36813		0.789081	-0.573688	-0.062305	0.210597	-70.276364	8.239207	24.082690
36814		0.788198	-0.572864	-0.056304	0.217719	-70.016187	9.246871	24.398942
36815		0.787211	-0.572096	-0.050424	0.224638	-69.767674	10.232364	24.709569
36816		0.786105	-0.571415	-0.044657	0.231364	-69.534917	11.197912	25.013875
36817		0.784939	-0.570733	-0.038994	0.237938	-69.304848	12.144716	25.316226
36818		0.783753	-0.569983	-0.033421	0.244404	-69.067568	13.074865	25.620848
36819		0.782596	-0.569132	-0.027911	0.250704	-68.818083	13.985821	25.920756
36820		0.781468	-0.568212	-0.022483	0.256784	-68.561338	14.872899	26.211357
36821		0.780347	-0.567308	-0.017142	0.262539	-68.310341	15.731352	26.480584
36822		0.779231	-0.566431	-0.011922	0.267978	-68.067274	16.558946	26.730455
36823		0.778129	-0.565582	-0.006929	0.273103	-67.833626	17.345955	26.967099
36824		0.777117	-0.564694	-0.002164	0.277859	-67.600627	18.086217	27.185738
36825		0.776202	-0.563794	0.002370	0.282208	-67.372511	18.777523	27.381092
36826		0.775419	-0.562874	0.006700	0.286100	-67.148268	19.418558	27.545897
36827		0.774901	-0.561719	0.010925	0.289622	-66.895366	20.017299	27.687750
36828		0.774661	-0.560276	0.015105	0.292855	-66.604680	20.582823	27.812809
36829		0.774318	-0.559012	0.019193	0.295922	-66.342551	21.135232	27.925293
36830		0.773525	-0.558445	0.022993	0.298780	-66.186684	21.670972	28.017971
36831		0.772206	-0.558611	0.026472	0.301581	-66.141069	22.198494	28.106335
36832		0.770477	-0.559282	0.029678	0.304446	-66.171373	22.722932	28.204805
36833		0.768609	-0.560059	0.032750	0.307411	-66.217802	23.246034	28.319377
36834		0.767006	-0.560451	0.035732	0.310355	-66.209825	23.746471	28.448402
36835		0.765934	-0.560127	0.038692	0.313217	-66.098308	24.214512	28.591973
36836		0.765502	-0.558976	0.041656	0.315939	-65.866584	24.644116	28.746851
36837		0.765490	-0.557317	0.044464	0.318506	-65.562943	25.029885	28.912294
36838		0.765644	-0.555598	0.046964	0.320771	-65.256686	25.363213	29.067331
36839		0.765825	-0.554059	0.049019	0.322688	-64.984841	25.636258	29.206683
36840		0.766007	-0.552769	0.050608	0.324221	-64.758743	25.847068	29.324608
36841		0.766185	-0.551730	0.051776	0.325384	-64.578404	26.001058	29.418899
36842		0.766366	-0.550936	0.052520	0.326181	-64.443087	26.098014	29.489798
36843		0.766523	-0.550416	0.052954	0.326621	-64.356123	26.150782	29.530353
36844		0.766751	-0.550016	0.053050	0.326744	-64.294486	26.153746	29.551222
36845		0.767171	-0.549556	0.052951	0.326548	-64.230703	26.113948	29.549909
36846		0.767844	-0.548965	0.052579	0.326019	-64.155276	26.020421	29.531171
36847		0.768787	-0.548184	0.051988	0.325205	-64.058533	25.879440	29.499132
36848		0.770000	-0.547224	0.051132	0.324087	-63.942588	25.686030	29.453982
36849		0.771389	-0.546199	0.049984	0.322687	-63.824659	25.443254	29.395636
36850		0.772783	-0.545364	0.048541	0.320979	-63.742043	25.158513	29.314038
36851		0.774039	-0.544903	0.046774	0.318993	-63.721250	24.837768	29.208498
36852		0.775167	-0.544823	0.044719	0.316677	-63.763309	24.481276	29.072299
36853		0.776147	-0.545124	0.042354	0.314073	-63.867370	24.089490	28.911779
36854		0.777104	-0.545582	0.039784	0.311235	-63.998757	23.668278	28.734485
36855		0.778148	-0.546019	0.037088	0.308177	-64.130885	23.219890	28.542943
36856		0.779329	-0.546309	0.034334	0.304981	-64.243474	22.752006	28.345752
36857		0.780559	-0.546539	0.031480	0.301713	-64.348770	22.268009	28.150255
36858		0.781799	-0.546744	0.028494	0.298410	-64.451607	21.768718	27.961159
36859		0.782992	-0.547013	0.025432	0.295049	-64.564627	21.260954	27.770471
36860		0.784106	-0.547396	0.022229	0.291619	-64.695785	20.739593	27.579984
36861		0.785072	-0.547962	0.018817	0.288176	-64.854904	20.204098	27.398096
36862		0.785945	-0.548666	0.015134	0.284653	-65.037092	19.642345	27.223049
36863		0.786850	-0.549366	0.011171	0.280963	-65.223432	19.043296	27.049873
36864		0.787858	-0.549962	0.006985	0.277080	-65.399735	18.407500	26.874949
36865		0.789005	-0.550431	0.002609	0.272927	-65.563000	17.732478	26.689099
36866		0.790203	-0.550887	-0.001984	0.268513	-65.729662	17.019908	26.492641
36867		0.791191	-0.551646	-0.006872	0.263924	-65.944574	16.278817	26.293502
36868		0.791823	-0.552921	-0.012090	0.259130	-66.238005	15.510242	26.088149
36869		0.792133	-0.554662	-0.017708	0.254089	-66.604563	14.703272	25.879610
36870		0.792267	-0.556637	-0.023737	0.248805	-67.012099	13.849685	25.674800
36871		0.792556	-0.558345	-0.030172	0.243301	-67.391184	12.936189	25.484895
36872		0.793271	-0.559405	-0.036971	0.237529	-67.689346	11.952104	25.307718
36873		0.794347	-0.559866	-0.044123	0.231552	-67.914157	10.904836	25.147193
36874		0.795650	-0.559907	-0.051588	0.225352	-68.091019	9.802933	24.995182
36875		0.796966	-0.559789	-0.059306	0.219006	-68.255633	8.665427	24.852066
36876		0.798080	-0.559792	-0.067289	0.212538	-68.447532	7.501372	24.718390
36877		0.798813	-0.560146	-0.075557	0.205976	-68.699323	6.317717	24.597779
36878		0.799290	-0.560684	-0.084301	0.199152	-68.994257	5.080777	24.489175
36879		0.799755	-0.561065	-0.093501	0.191979	-69.286524	3.776780	24.386472
36880		0.800431	-0.560910	-0.103137	0.184536	-69.525363	2.401879	24.297724
36881		0.801348	-0.560118	-0.113128	0.176948	-69.696729	0.969119	24.228832
36882		0.802391	-0.558856	-0.123370	0.169199	-69.822327	-0.508038	24.169422
36883		0.803262	-0.557547	-0.133626	0.161419	-69.953820	-1.987222	24.115291
36884		0.803614	-0.556711	-0.143735	0.153678	-70.157511	-3.434466	24.064638
36885		0.803368	-0.556497	-0.153703	0.145900	-70.453439	-4.851551	24.013425
36886		0.802722	-0.556618	-0.163633	0.137977	-70.806262	-6.263641	23.960116
36887		0.801866	-0.556783	-0.173580	0.129896	-71.178394	-7.685106	23.906887
36888		0.801130	-0.556450	-0.183765	0.121593	-71.504513	-9.155769	23.859141
36889		0.800838	-0.555038	-0.194335	0.113252	-71.712664	-10.692784	23.837099
36890		0.801168	-0.552232	-0.205285	0.105011	-71.761416	-12.295586	23.845082
36891		0.802005	-0.548237	-0.216392	0.096942	-71.670953	-13.933828	23.870556
36892		0.803210	-0.543334	-0.227409	0.089029	-71.468710	-15.579179	23.892128
36893		0.804508	-0.537970	-0.238222	0.081274	-71.210247	-17.208973	23.905219
36894		0.805564	-0.532685	-0.248834	0.073451	-70.967948	-18.823295	23.897759
36895		0.806028	-0.528032	-0.259297	0.065310	-70.818848	-20.428004	23.863565
36896		0.805849	-0.524089	-0.269662	0.056742	-70.775329	-22.032797	23.802091
36897		0.805157	-0.520681	-0.279864	0.047853	-70.810370	-23.630462	23.717333
36898		0.804076	-0.517555	-0.290012	0.038622	-70.894595	-25.239646	23.612193
36899		0.802754	-0.514462	-0.300100	0.029233	-70.994563	-26.855024	23.497868
36900		0.801325	-0.511146	-0.310184	0.019845	-71.078735	-28.478510	23.386643
36901		0.799941	-0.507440	-0.320130	0.010772	-71.117253	-30.081971	23.289822
36902		0.798609	-0.503352	-0.329935	0.001945	-71.108796	-31.669613	23.198094
36903		0.797279	-0.499028	-0.339518	-0.006681	-71.066879	-33.233312	23.102710
36904		0.795840	-0.494613	-0.348947	-0.015255	-71.014711	-34.785335	23.000041
36905		0.794160	-0.490374	-0.358150	-0.023909	-70.984265	-36.320793	22.881308
36906		0.792125	-0.486439	-0.367194	-0.032920	-70.995664	-37.861514	22.732240
36907		0.789738	-0.482816	-0.376052	-0.042277	-71.048184	-39.404315	22.552836
36908		0.787036	-0.479393	-0.384768	-0.052070	-71.126227	-40.963312	22.333630
36909		0.784089	-0.476050	-0.393324	-0.062272	-71.208659	-42.538969	22.068216
36910		0.780943	-0.472519	-0.401927	-0.072856	-71.271441	-44.156109	21.766253
36911		0.777646	-0.468780	-0.410495	-0.083698	-71.303589	-45.800140	21.427327
36912		0.774194	-0.464761	-0.419072	-0.094862	-71.293469	-47.481747	21.041800
36913		0.770603	-0.460495	-0.427583	-0.106244	-71.236828	-49.186698	20.608742
36914		0.766894	-0.455884	-0.436091	-0.117759	-71.121224	-50.917693	20.133013
36915		0.763170	-0.450842	-0.444544	-0.129201	-70.923865	-52.657596	19.615621
36916		0.759480	-0.445310	-0.452956	-0.140430	-70.631640	-54.399063	19.060333
36917		0.755817	-0.439453	-0.461224	-0.151307	-70.258334	-56.117900	18.473815
36918		0.752136	-0.433328	-0.469381	-0.161867	-69.810675	-57.817762	17.854532
36919		0.748495	-0.427113	-0.477261	-0.171905	-69.300915	-59.462996	17.212040
36920		0.744856	-0.420907	-0.484880	-0.181434	-68.745487	-61.052665	16.552981
36921		0.741215	-0.415006	-0.492057	-0.190397	-68.179812	-62.557156	15.887740
36922		0.737511	-0.409623	-0.498711	-0.198934	-67.631106	-63.972687	15.211705
36923		0.733771	-0.404939	-0.504718	-0.207036	-67.122598	-65.280955	14.531889
36924		0.729953	-0.401049	-0.510096	-0.214779	-66.682121	-66.486568	13.862701
36925		0.726136	-0.398021	-0.514757	-0.222109	-66.320868	-67.574153	13.214147
36926		0.722322	-0.395800	-0.518762	-0.229085	-66.042676	-68.555018	12.592224
36927		0.718614	-0.394282	-0.522164	-0.235543	-65.852031	-69.424407	12.026898
36928		0.715100	-0.393249	-0.525075	-0.241418	-65.726313	-70.192767	11.523575
36929		0.711842	-0.392652	-0.527537	-0.246596	-65.679417	-70.856338	11.111795
36930		0.708822	-0.392433	-0.529609	-0.251163	-65.708320	-71.428265	10.787743
36931		0.706054	-0.392575	-0.531301	-0.255130	-65.815643	-71.910045	10.555261
36932		0.703534	-0.392964	-0.532677	-0.258603	-65.973456	-72.317676	10.388908
36933		0.701286	-0.393522	-0.533782	-0.261562	-66.172517	-72.655405	10.289293
36934		0.699346	-0.394063	-0.534751	-0.263954	-66.392007	-72.936495	10.259184
36935		0.697771	-0.394423	-0.535669	-0.265716	-66.605150	-73.167923	10.293608
36936		0.696619	-0.394517	-0.536600	-0.266717	-66.812495	-73.347682	10.413323
36937		0.695885	-0.394399	-0.537501	-0.266995	-67.015046	-73.472366	10.610830
36938		0.695500	-0.394188	-0.538313	-0.266673	-67.224644	-73.542923	10.875442
36939		0.695320	-0.394151	-0.538938	-0.265934	-67.486247	-73.557641	11.210200
36940		0.695229	-0.394427	-0.539343	-0.264939	-67.821081	-73.522749	11.609113
36941		0.695168	-0.395053	-0.539537	-0.263770	-68.233356	-73.444485	12.065712
36942		0.695197	-0.395905	-0.539533	-0.262421	-68.679041	-73.325582	12.548217
36943		0.695375	-0.396780	-0.539422	-0.260852	-69.114350	-73.176730	13.036337
36944		0.695737	-0.397619	-0.539224	-0.259009	-69.528074	-72.997310	13.528998
36945		0.696239	-0.398516	-0.538901	-0.256946	-69.934194	-72.785365	14.026409
36946		0.696857	-0.399568	-0.538370	-0.254744	-70.331430	-72.536426	14.510256
36947		0.697509	-0.400868	-0.537607	-0.252517	-70.733257	-72.255175	14.974960
36948		0.698193	-0.402428	-0.536571	-0.250338	-71.123132	-71.942657	15.396232
36949		0.698822	-0.404264	-0.535308	-0.248325	-71.510796	-71.612733	15.772435
36950		0.699439	-0.406267	-0.533854	-0.246439	-71.875826	-71.268970	16.096765
36951		0.700042	-0.408303	-0.532344	-0.244618	-72.220942	-70.923777	16.391417
36952		0.700644	-0.410278	-0.530861	-0.242811	-72.544268	-70.583802	16.668675
36953		0.701367	-0.411851	-0.529557	-0.240899	-72.793194	-70.263703	16.919905
36954		0.702258	-0.412933	-0.528478	-0.238811	-72.960026	-69.964709	17.152568
36955		0.703221	-0.413574	-0.527638	-0.236717	-73.055591	-69.700607	17.358587
36956		0.704181	-0.413956	-0.526973	-0.234669	-73.116294	-69.464248	17.551901
36957		0.705169	-0.414080	-0.526457	-0.232632	-73.138566	-69.250549	17.731725
36958		0.706106	-0.414052	-0.526070	-0.230705	-73.143741	-69.062552	17.900529
36959		0.706953	-0.413863	-0.525836	-0.228979	-73.129722	-68.909785	18.049802
36960		0.707835	-0.413262	-0.525846	-0.227310	-73.057071	-68.796473	18.177087
36961		0.708629	-0.412603	-0.525965	-0.225753	-72.990629	-68.704749	18.307507
36962		0.709199	-0.412142	-0.526065	-0.224568	-72.954696	-68.634849	18.417464
36963		0.709590	-0.411890	-0.526136	-0.223629	-72.957080	-68.575970	18.524619
36964		0.709928	-0.411714	-0.526198	-0.222733	-72.976558	-68.517492	18.637762
36965		0.710221	-0.411579	-0.526267	-0.221883	-73.006630	-68.462312	18.753860
36966		0.710462	-0.411557	-0.526292	-0.221091	-73.054347	-68.404261	18.871288
36967		0.710666	-0.411619	-0.526280	-0.220347	-73.113095	-68.344103	18.987339
36968		0.710912	-0.411649	-0.526238	-0.219597	-73.154471	-68.281278	19.089267
36969		0.711199	-0.411621	-0.526198	-0.218814	-73.181850	-68.217683	19.185535
36970		0.711585	-0.411457	-0.526163	-0.217950	-73.176145	-68.151918	19.268522
36971		0.712073	-0.411152	-0.526135	-0.217000	-73.137005	-68.084014	19.338990
36972		0.712673	-0.410678	-0.526124	-0.215949	-73.060918	-68.014771	19.397143
36973		0.713366	-0.410064	-0.526142	-0.214780	-72.959943	-67.943086	19.454007
36974		0.714111	-0.409378	-0.526196	-0.213477	-72.856786	-67.866830	19.527112
36975		0.714857	-0.408723	-0.526235	-0.212137	-72.761048	-67.785604	19.607676
36976		0.715580	-0.408120	-0.526257	-0.210799	-72.676291	-67.701702	19.693910
36977		0.716264	-0.407596	-0.526260	-0.209480	-72.607718	-67.615399	19.786910
36978		0.716968	-0.407088	-0.526242	-0.208101	-72.542408	-67.522207	19.886386
36979		0.717764	-0.406460	-0.526237	-0.206592	-72.455207	-67.423853	19.986441
36980		0.718688	-0.405698	-0.526227	-0.204892	-72.342108	-67.314448	20.089254
36981		0.719760	-0.404719	-0.526263	-0.202969	-72.194835	-67.198914	20.197682
36982		0.720968	-0.403603	-0.526274	-0.200863	-72.016673	-67.071389	20.303139
36983		0.722269	-0.402431	-0.526252	-0.198583	-71.827110	-66.929514	20.416575
36984		0.723609	-0.401279	-0.526171	-0.196236	-71.634657	-66.776840	20.530113
36985		0.724914	-0.400259	-0.526004	-0.193936	-71.456111	-66.615970	20.640018
36986		0.726168	-0.399388	-0.525757	-0.191699	-71.295631	-66.448451	20.747640
36987		0.727363	-0.398663	-0.525436	-0.189547	-71.152877	-66.276270	20.851112
36988		0.728501	-0.398057	-0.525071	-0.187452	-71.028642	-66.101106	20.956691
36989		0.729585	-0.397574	-0.524658	-0.185404	-70.924058	-65.921670	21.065554
36990		0.730675	-0.397104	-0.524233	-0.183312	-70.823309	-65.737847	21.180619
36991		0.731760	-0.396676	-0.523782	-0.181183	-70.730824	-65.547889	21.302656
36992		0.732841	-0.396318	-0.523302	-0.178971	-70.654747	-65.347453	21.440993
36993		0.733863	-0.396104	-0.522782	-0.176764	-70.606123	-65.139508	21.592406
36994		0.734821	-0.396057	-0.522196	-0.174608	-70.581778	-64.924630	21.747248
36995		0.735666	-0.396183	-0.521588	-0.172572	-70.588626	-64.711550	21.906637
36996		0.736412	-0.396477	-0.520947	-0.170637	-70.623853	-64.498077	22.069679
36997		0.737074	-0.396851	-0.520320	-0.168817	-70.674512	-64.292236	22.231119
36998		0.737697	-0.397197	-0.519743	-0.167045	-70.726153	-64.095806	22.392488
36999		0.738337	-0.397435	-0.519220	-0.165269	-70.762802	-63.907689	22.549751
37000		0.739014	-0.397486	-0.518794	-0.163448	-70.777270	-63.731456	22.707263
37001		0.739741	-0.397363	-0.518438	-0.161579	-70.767462	-63.563842	22.861405
37002		0.740521	-0.397095	-0.518109	-0.159710	-70.729162	-63.403499	23.000962
37003		0.741273	-0.396781	-0.517827	-0.157905	-70.687136	-63.254001	23.136123
37004		0.741946	-0.396546	-0.517554	-0.156224	-70.659081	-63.112220	23.267657
37005		0.742518	-0.396474	-0.517231	-0.154748	-70.648430	-62.975726	23.383367
37006		0.742927	-0.396633	-0.516869	-0.153582	-70.667778	-62.851108	23.481257
37007		0.743189	-0.397061	-0.516440	-0.152654	-70.723376	-62.729058	23.569452
37008		0.743365	-0.397644	-0.515946	-0.151943	-70.790207	-62.611971	23.635507
37009		0.743535	-0.398297	-0.515370	-0.151360	-70.849451	-62.494011	23.675847
37010		0.743718	-0.399018	-0.514675	-0.150925	-70.892732	-62.373513	23.680111
37011		0.743881	-0.399894	-0.513825	-0.150694	-70.929966	-62.248241	23.645062
37012		0.743988	-0.400998	-0.512806	-0.150704	-70.973437	-62.117420	23.572835
37013		0.744017	-0.402287	-0.511656	-0.151036	-71.017928	-61.991899	23.455753
37014		0.743931	-0.403809	-0.510404	-0.151634	-71.083460	-61.869070	23.314135
37015		0.743716	-0.405508	-0.509105	-0.152518	-71.167508	-61.757598	23.149659
37016		0.743406	-0.407284	-0.507807	-0.153624	-71.260384	-61.660449	22.967874
37017		0.743054	-0.408957	-0.506603	-0.154849	-71.344888	-61.584529	22.778137
37018		0.742748	-0.410369	-0.505541	-0.156050	-71.400270	-61.528600	22.587324
37019		0.742542	-0.411391	-0.504686	-0.157101	-71.416316	-61.493271	22.408881
37020		0.742480	-0.411978	-0.504037	-0.157937	-71.384288	-61.474961	22.243932
37021		0.742534	-0.412190	-0.503604	-0.158509	-71.321695	-61.468918	22.108607
37022		0.742695	-0.412050	-0.503358	-0.158903	-71.224025	-61.478056	21.988576
37023		0.742908	-0.411693	-0.503259	-0.159146	-71.112461	-61.496547	21.889688
37024		0.743168	-0.411206	-0.503243	-0.159243	-70.994160	-61.516073	21.809551
37025		0.743431	-0.410698	-0.503254	-0.159290	-70.878891	-61.535068	21.738789
37026		0.743659	-0.410307	-0.503216	-0.159356	-70.779275	-61.547355	21.670525
37027		0.743862	-0.410037	-0.503092	-0.159487	-70.688091	-61.552556	21.592642
37028		0.744066	-0.409874	-0.502867	-0.159671	-70.598644	-61.548609	21.500894
37029		0.744271	-0.409845	-0.502499	-0.159945	-70.508156	-61.533555	21.386165
37030		0.744482	-0.409916	-0.502008	-0.160322	-70.411905	-61.511072	21.246161
37031		0.744692	-0.410114	-0.501385	-0.160787	-70.315404	-61.478507	21.084798
37032		0.744897	-0.410410	-0.500649	-0.161380	-70.213762	-61.441257	20.897091
37033		0.745084	-0.410807	-0.499821	-0.162070	-70.113679	-61.399135	20.692104
37034		0.745243	-0.411276	-0.498940	-0.162861	-70.015909	-61.357211	20.473284
37035		0.745365	-0.411779	-0.498059	-0.163727	-69.922822	-61.319513	20.249732
37036		0.745502	-0.412243	-0.497181	-0.164601	-69.822059	-61.283739	20.021310
37037		0.745674	-0.412601	-0.496357	-0.165409	-69.710802	-61.251267	19.798689
37038		0.745843	-0.412929	-0.495580	-0.166156	-69.605153	-61.219591	19.589977
37039		0.745974	-0.413290	-0.494833	-0.166895	-69.513568	-61.189418	19.393235
37040		0.746083	-0.413677	-0.494109	-0.167594	-69.434514	-61.157912	19.210080
37041		0.746210	-0.414033	-0.493418	-0.168184	-69.360345	-61.122449	19.044200
37042		0.746377	-0.414343	-0.492745	-0.168653	-69.285289	-61.081304	18.892157
37043		0.746532	-0.414668	-0.492107	-0.169029	-69.225191	-61.036587	18.761754
37044		0.746707	-0.414984	-0.491485	-0.169291	-69.171845	-60.985425	18.648695
37045		0.746879	-0.415312	-0.490893	-0.169445	-69.132313	-60.929217	18.557676
37046		0.747040	-0.415655	-0.490329	-0.169528	-69.104761	-60.870453	18.483450
37047		0.747188	-0.416037	-0.489775	-0.169539	-69.091871	-60.806536	18.426332
37048		0.747305	-0.416462	-0.489241	-0.169520	-69.093972	-60.741348	18.382737
37049		0.747404	-0.416916	-0.488717	-0.169482	-69.105157	-60.675224	18.347198
37050		0.747474	-0.417420	-0.488201	-0.169416	-69.131066	-60.606697	18.323951
37051		0.747528	-0.418001	-0.487655	-0.169319	-69.170139	-60.531125	18.308737
37052		0.747534	-0.418704	-0.487079	-0.169219	-69.231437	-60.449402	18.303826
37053		0.747516	-0.419495	-0.486461	-0.169115	-69.305398	-60.361211	18.302900
37054		0.747474	-0.420346	-0.485820	-0.169028	-69.388134	-60.270479	18.303166
37055		0.747400	-0.421269	-0.485169	-0.168927	-69.485687	-60.176104	18.312239
37056		0.747279	-0.422247	-0.484521	-0.168882	-69.593255	-60.084792	18.321514
