// General information: 
//  MT Manager version: 2022.2.0 
//  XDA version: 2022.2.0 build 7381 rev 124627 built on 2023-07-19
// Device information: 
//  DeviceId: 10B4151A
//  ProductCode: MTW2-3A7G6
//  Firmware Version: 4.14.0
//  Hardware Version: 3.0.0
// Device settings: 
//  Filter Profile: human(46.1)
//  Option Flags: Orientation Smoother Disabled, Position/Velocity Smoother Disabled, Continuous Zero Rotation Update Disabled, AHS Disabled, ICC Disabled
// Coordinate system: ENU
PacketCounter	SampleTimeFine	Quat_q0	Quat_q1	Quat_q2	Quat_q3	Roll	Pitch	Yaw
35519		0.848706	-0.044134	-0.525756	-0.036482	-4.713913	-63.591414	-1.999510
35520		0.848731	-0.044087	-0.525722	-0.036441	-4.708960	-63.586444	-1.997213
35521		0.848757	-0.044128	-0.525672	-0.036513	-4.707962	-63.580250	-2.007636
35522		0.848780	-0.044074	-0.525641	-0.036485	-4.699845	-63.575756	-2.009016
35523		0.848755	-0.044051	-0.525684	-0.036479	-4.695979	-63.581507	-2.010415
35524		0.848786	-0.043964	-0.525644	-0.036446	-4.680951	-63.575708	-2.015513
35525		0.848837	-0.043861	-0.525575	-0.036380	-4.666941	-63.565778	-2.015611
35526		0.848863	-0.043800	-0.525538	-0.036379	-4.653559	-63.560617	-2.023906
35527		0.848844	-0.043760	-0.525567	-0.036442	-4.636362	-63.564791	-2.042844
35528		0.848822	-0.043692	-0.525607	-0.036445	-4.621373	-63.570085	-2.052475
35529		0.848765	-0.043646	-0.525703	-0.036473	-4.608016	-63.582943	-2.064034
35530		0.848709	-0.043601	-0.525795	-0.036479	-4.597959	-63.595379	-2.070725
35531		0.848638	-0.043533	-0.525916	-0.036464	-4.585476	-63.611436	-2.076029
35532		0.848585	-0.043489	-0.526008	-0.036441	-4.579488	-63.623547	-2.076315
35533		0.848546	-0.043433	-0.526075	-0.036458	-4.565282	-63.632491	-2.087111
35534		0.848519	-0.043401	-0.526123	-0.036437	-4.561268	-63.638765	-2.086630
35535		0.848504	-0.043390	-0.526146	-0.036452	-4.557175	-63.642002	-2.091022
35536		0.848491	-0.043321	-0.526173	-0.036430	-4.545085	-63.645388	-2.095559
35537		0.848478	-0.043314	-0.526194	-0.036459	-4.539646	-63.648309	-2.102721
35538		0.848456	-0.043258	-0.526236	-0.036442	-4.529981	-63.653669	-2.106211
35539		0.848414	-0.043222	-0.526306	-0.036428	-4.524374	-63.663007	-2.107577
35540		0.848370	-0.043183	-0.526383	-0.036396	-4.520411	-63.673059	-2.105471
35541		0.848313	-0.043098	-0.526483	-0.036361	-4.506922	-63.686256	-2.108735
35542		0.848257	-0.043059	-0.526579	-0.036330	-4.503110	-63.698908	-2.106538
35543		0.848188	-0.043000	-0.526698	-0.036287	-4.496798	-63.714569	-2.104165
35544		0.848132	-0.042982	-0.526790	-0.036285	-4.493389	-63.726875	-2.105717
35545		0.848078	-0.043013	-0.526872	-0.036321	-4.495926	-63.738202	-2.108638
35546		0.848018	-0.043036	-0.526964	-0.036364	-4.495448	-63.750960	-2.114425
35547		0.847951	-0.043003	-0.527078	-0.036322	-4.494583	-63.765953	-2.108869
35548		0.847883	-0.043040	-0.527183	-0.036340	-4.500647	-63.780364	-2.107153
35549		0.847825	-0.043027	-0.527278	-0.036322	-4.500877	-63.792998	-2.104203
35550		0.847748	-0.043037	-0.527401	-0.036338	-4.501373	-63.809682	-2.105609
35551		0.847647	-0.043068	-0.527559	-0.036338	-4.509144	-63.831193	-2.100181
35552		0.847562	-0.043091	-0.527695	-0.036329	-4.516221	-63.849526	-2.094050
35553		0.847478	-0.043063	-0.527838	-0.036251	-4.521428	-63.868288	-2.079735
35554		0.847404	-0.043094	-0.527954	-0.036239	-4.530610	-63.883977	-2.071940
35555		0.847345	-0.043172	-0.528041	-0.036283	-4.542135	-63.896092	-2.070411
35556		0.847281	-0.043204	-0.528140	-0.036281	-4.550211	-63.909615	-2.064673
35557		0.847221	-0.043273	-0.528227	-0.036337	-4.558209	-63.921717	-2.066927
35558		0.847170	-0.043334	-0.528303	-0.036361	-4.568765	-63.932260	-2.063299
35559		0.847151	-0.043356	-0.528331	-0.036368	-4.572901	-63.936188	-2.061485
35560		0.847128	-0.043401	-0.528362	-0.036391	-4.579664	-63.940587	-2.060343
35561		0.847095	-0.043459	-0.528406	-0.036452	-4.584602	-63.947045	-2.065224
35562		0.847036	-0.043483	-0.528497	-0.036466	-4.588316	-63.959464	-2.064490
35563		0.846986	-0.043535	-0.528571	-0.036503	-4.595185	-63.969739	-2.064851
35564		0.846973	-0.043612	-0.528582	-0.036544	-4.606620	-63.971710	-2.063308
35565		0.846923	-0.043567	-0.528669	-0.036501	-4.603024	-63.983065	-2.059372
35566		0.846848	-0.043549	-0.528790	-0.036515	-4.597848	-63.999406	-2.063957
35567		0.846770	-0.043663	-0.528902	-0.036567	-4.616591	-64.015163	-2.058910
35568		0.846691	-0.043767	-0.529016	-0.036608	-4.634634	-64.031018	-2.052743
35569		0.846593	-0.043850	-0.529163	-0.036653	-4.647680	-64.051288	-2.050063
35570		0.846532	-0.043961	-0.529248	-0.036705	-4.665663	-64.063367	-2.045531
35571		0.846437	-0.044032	-0.529392	-0.036743	-4.676919	-64.083236	-2.043021
35572		0.846337	-0.044055	-0.529548	-0.036763	-4.680213	-64.104448	-2.043079
35573		0.846262	-0.044143	-0.529658	-0.036817	-4.692994	-64.119770	-2.041829
35574		0.846184	-0.044152	-0.529780	-0.036833	-4.693650	-64.136416	-2.043092
35575		0.846121	-0.044156	-0.529880	-0.036843	-4.693488	-64.149935	-2.044181
35576		0.846070	-0.044168	-0.529959	-0.036864	-4.693822	-64.160805	-2.046463
35577		0.846027	-0.044198	-0.530023	-0.036900	-4.695878	-64.169673	-2.049819
35578		0.845997	-0.044191	-0.530071	-0.036900	-4.694494	-64.176133	-2.050557
35579		0.845967	-0.044141	-0.530125	-0.036860	-4.689272	-64.183158	-2.048211
35580		0.845948	-0.044095	-0.530160	-0.036865	-4.678619	-64.187770	-2.055344
35581		0.845906	-0.044065	-0.530229	-0.036857	-4.673471	-64.197073	-2.057211
35582		0.845886	-0.044059	-0.530261	-0.036867	-4.670917	-64.201376	-2.060066
35583		0.845863	-0.043983	-0.530308	-0.036803	-4.662905	-64.207164	-2.056291
35584		0.845831	-0.043980	-0.530360	-0.036795	-4.663742	-64.214170	-2.054486
35585		0.845806	-0.043976	-0.530402	-0.036762	-4.667621	-64.219684	-2.047427
35586		0.845769	-0.043965	-0.530464	-0.036743	-4.668390	-64.227861	-2.044056
35587		0.845717	-0.044057	-0.530535	-0.036805	-4.680688	-64.238024	-2.044474
35588		0.845680	-0.044050	-0.530598	-0.036767	-4.684685	-64.246310	-2.036552
35589		0.845656	-0.044103	-0.530627	-0.036824	-4.688777	-64.250737	-2.041630
35590		0.845654	-0.044139	-0.530627	-0.036807	-4.699377	-64.250790	-2.032566
35591		0.845666	-0.044133	-0.530613	-0.036753	-4.705464	-64.248479	-2.021552
35592		0.845692	-0.044141	-0.530573	-0.036732	-4.709872	-64.243032	-2.016055
35593		0.845693	-0.044081	-0.530580	-0.036671	-4.705142	-64.243469	-2.010725
35594		0.845680	-0.044024	-0.530608	-0.036628	-4.698402	-64.246918	-2.009105
35595		0.845701	-0.044150	-0.530560	-0.036707	-4.715199	-64.241081	-2.009495
35596		0.845738	-0.044191	-0.530500	-0.036675	-4.728472	-64.232880	-1.997069
35597		0.845739	-0.044129	-0.530509	-0.036569	-4.729559	-64.233466	-1.981891
35598		0.845781	-0.044143	-0.530446	-0.036505	-4.741217	-64.224615	-1.966242
35599		0.845800	-0.044177	-0.530414	-0.036488	-4.751093	-64.220263	-1.957912
35600		0.845825	-0.044196	-0.530376	-0.036446	-4.760968	-64.214877	-1.946124
35601		0.845835	-0.044270	-0.530355	-0.036435	-4.778770	-64.212145	-1.933606
35602		0.845852	-0.044308	-0.530327	-0.036383	-4.794379	-64.208241	-1.916954
35603		0.845870	-0.044350	-0.530299	-0.036337	-4.810028	-64.204201	-1.900983
35604		0.845871	-0.044370	-0.530299	-0.036296	-4.820293	-64.203993	-1.888929
35605		0.845864	-0.044409	-0.530307	-0.036275	-4.832110	-64.205136	-1.878638
35606		0.845872	-0.044450	-0.530293	-0.036248	-4.844730	-64.203127	-1.867178
35607		0.845871	-0.044433	-0.530302	-0.036158	-4.853671	-64.203765	-1.849357
35608		0.845875	-0.044480	-0.530294	-0.036133	-4.867537	-64.202736	-1.837336
35609		0.845866	-0.044543	-0.530303	-0.036126	-4.882697	-64.203964	-1.826812
35610		0.845860	-0.044609	-0.530308	-0.036121	-4.898112	-64.204751	-1.816443
35611		0.845859	-0.044696	-0.530303	-0.036119	-4.917871	-64.204244	-1.803795
35612		0.845867	-0.044742	-0.530287	-0.036108	-4.929532	-64.202084	-1.795115
35613		0.845851	-0.044808	-0.530306	-0.036105	-4.944921	-64.204899	-1.784904
35614		0.845847	-0.044884	-0.530305	-0.036122	-4.959416	-64.204952	-1.778096
35615		0.845829	-0.044891	-0.530338	-0.036051	-4.970989	-64.209035	-1.761189
35616		0.845809	-0.044956	-0.530364	-0.036076	-4.982428	-64.212749	-1.757185
35617		0.845784	-0.045054	-0.530391	-0.036125	-4.997527	-64.217006	-1.754219
35618		0.845756	-0.045116	-0.530430	-0.036129	-5.011157	-64.222426	-1.746073
35619		0.845728	-0.045190	-0.530468	-0.036139	-5.026420	-64.227759	-1.737727
35620		0.845683	-0.045276	-0.530533	-0.036141	-5.046073	-64.236656	-1.725304
35621		0.845647	-0.045458	-0.530567	-0.036251	-5.071613	-64.242314	-1.723941
35622		0.845602	-0.045516	-0.530631	-0.036278	-5.081270	-64.251248	-1.721346
35623		0.845555	-0.045548	-0.530704	-0.036253	-5.092403	-64.261118	-1.710596
35624		0.845506	-0.045581	-0.530778	-0.036275	-5.097486	-64.271311	-1.709944
35625		0.845448	-0.045602	-0.530870	-0.036268	-5.103826	-64.283758	-1.704643
35626		0.845384	-0.045633	-0.530968	-0.036284	-5.109125	-64.297123	-1.703019
35627		0.845311	-0.045711	-0.531076	-0.036315	-5.123185	-64.312068	-1.697832
35628		0.845249	-0.045750	-0.531172	-0.036300	-5.134994	-64.325036	-1.687866
35629		0.845186	-0.045795	-0.531269	-0.036290	-5.146995	-64.338140	-1.678609
35630		0.845122	-0.045822	-0.531370	-0.036272	-5.156535	-64.351733	-1.669597
35631		0.845068	-0.045856	-0.531455	-0.036226	-5.171288	-64.363147	-1.653652
35632		0.845011	-0.045895	-0.531542	-0.036224	-5.180915	-64.374986	-1.647004
35633		0.844964	-0.045924	-0.531616	-0.036202	-5.191169	-64.384871	-1.637219
35634		0.844920	-0.045959	-0.531683	-0.036219	-5.197324	-64.394027	-1.635307
35635		0.844874	-0.046042	-0.531744	-0.036276	-5.208399	-64.402848	-1.635642
35636		0.844823	-0.046091	-0.531818	-0.036321	-5.213879	-64.413283	-1.637924
35637		0.844790	-0.046204	-0.531854	-0.036422	-5.225112	-64.418959	-1.644443
35638		0.844747	-0.046269	-0.531915	-0.036437	-5.238150	-64.427383	-1.637965
35639		0.844700	-0.046351	-0.531977	-0.036516	-5.246015	-64.436450	-1.643360
35640		0.844658	-0.046414	-0.532036	-0.036550	-5.255814	-64.444780	-1.641446
35641		0.844613	-0.046547	-0.532089	-0.036662	-5.270327	-64.452933	-1.647268
35642		0.844568	-0.046594	-0.532152	-0.036711	-5.274584	-64.461803	-1.650909
35643		0.844527	-0.046626	-0.532214	-0.036728	-5.280027	-64.470360	-1.649446
35644		0.844504	-0.046683	-0.532240	-0.036784	-5.285075	-64.474451	-1.653677
35645		0.844474	-0.046717	-0.532284	-0.036802	-5.290578	-64.480548	-1.652393
35646		0.844447	-0.046771	-0.532318	-0.036862	-5.294620	-64.485663	-1.657818
35647		0.844418	-0.046798	-0.532362	-0.036864	-5.300786	-64.491676	-1.653981
35648		0.844400	-0.046879	-0.532379	-0.036926	-5.310443	-64.494501	-1.656231
35649		0.844378	-0.046959	-0.532403	-0.036975	-5.321594	-64.498170	-1.655713
35650		0.844360	-0.047043	-0.532421	-0.037019	-5.334516	-64.501084	-1.653373
35651		0.844347	-0.047109	-0.532434	-0.037051	-5.344949	-64.503160	-1.651153
35652		0.844341	-0.047167	-0.532434	-0.037102	-5.350756	-64.503636	-1.654370
35653		0.844318	-0.047188	-0.532469	-0.037103	-5.355762	-64.508447	-1.651122
35654		0.844302	-0.047253	-0.532486	-0.037141	-5.365105	-64.511016	-1.650354
35655		0.844285	-0.047368	-0.532496	-0.037239	-5.377214	-64.513272	-1.655868
35656		0.844274	-0.047426	-0.532505	-0.037275	-5.385282	-64.514864	-1.655690
35657		0.844258	-0.047493	-0.532523	-0.037316	-5.394699	-64.517636	-1.655170
35658		0.844254	-0.047551	-0.532522	-0.037338	-5.404765	-64.517757	-1.651798
35659		0.844259	-0.047622	-0.532508	-0.037338	-5.420527	-64.516076	-1.641905
35660		0.844267	-0.047662	-0.532489	-0.037365	-5.425754	-64.513713	-1.642313
35661		0.844279	-0.047654	-0.532476	-0.037299	-5.433036	-64.511482	-1.628846
35662		0.844285	-0.047699	-0.532461	-0.037317	-5.440534	-64.509650	-1.626664
35663		0.844296	-0.047801	-0.532432	-0.037369	-5.455794	-64.506203	-1.624275
35664		0.844316	-0.047866	-0.532392	-0.037388	-5.467618	-64.501100	-1.619524
35665		0.844340	-0.047975	-0.532342	-0.037434	-5.485102	-64.494776	-1.615032
35666		0.844350	-0.047996	-0.532325	-0.037402	-5.494231	-64.492382	-1.605062
35667		0.844356	-0.048102	-0.532303	-0.037448	-5.511321	-64.489880	-1.600637
35668		0.844390	-0.048257	-0.532231	-0.037500	-5.538261	-64.480772	-1.590998
35669		0.844426	-0.048373	-0.532165	-0.037489	-5.565371	-64.471926	-1.572750
35670		0.844410	-0.048340	-0.532198	-0.037414	-5.568789	-64.475903	-1.560323
35671		0.844394	-0.048398	-0.532222	-0.037365	-5.589127	-64.478917	-1.540719
35672		0.844372	-0.048510	-0.532247	-0.037358	-5.615452	-64.482404	-1.523011
35673		0.844344	-0.048583	-0.532285	-0.037346	-5.634073	-64.487682	-1.509451
35674		0.844326	-0.048644	-0.532311	-0.037325	-5.650934	-64.491122	-1.495881
35675		0.844328	-0.048734	-0.532298	-0.037334	-5.669942	-64.489658	-1.485113
35676		0.844315	-0.048725	-0.532323	-0.037295	-5.673738	-64.492719	-1.477275
35677		0.844291	-0.048722	-0.532362	-0.037287	-5.674567	-64.497926	-1.475516
35678		0.844287	-0.048706	-0.532371	-0.037260	-5.674810	-64.498903	-1.471680
35679		0.844284	-0.048711	-0.532377	-0.037218	-5.681879	-64.499555	-1.461431
35680		0.844300	-0.048685	-0.532357	-0.037178	-5.681531	-64.496526	-1.456433
35681		0.844329	-0.048591	-0.532330	-0.037034	-5.680546	-64.491684	-1.437590
35682		0.844357	-0.048602	-0.532286	-0.037018	-5.684823	-64.485634	-1.433049
35683		0.844387	-0.048564	-0.532248	-0.036938	-5.686944	-64.479886	-1.421136
35684		0.844429	-0.048578	-0.532180	-0.036928	-5.690940	-64.470668	-1.417631
35685		0.844475	-0.048590	-0.532107	-0.036915	-5.694788	-64.460731	-1.413853
35686		0.844520	-0.048571	-0.532040	-0.036887	-5.693884	-64.451365	-1.410922
35687		0.844553	-0.048493	-0.531999	-0.036816	-5.685879	-64.445301	-1.406620
35688		0.844581	-0.048473	-0.531958	-0.036792	-5.684269	-64.439549	-1.404640
35689		0.844614	-0.048431	-0.531912	-0.036752	-5.679997	-64.432915	-1.402235
35690		0.844640	-0.048413	-0.531873	-0.036739	-5.677408	-64.427609	-1.402241
35691		0.844657	-0.048366	-0.531856	-0.036675	-5.675785	-64.424699	-1.394719
35692		0.844673	-0.048347	-0.531834	-0.036651	-5.674462	-64.421532	-1.392509
35693		0.844688	-0.048329	-0.531813	-0.036635	-5.672728	-64.418551	-1.391443
35694		0.844714	-0.048303	-0.531775	-0.036624	-5.667859	-64.413299	-1.393227
35695		0.844739	-0.048341	-0.531726	-0.036700	-5.665173	-64.407220	-1.405488
35696		0.844770	-0.048259	-0.531684	-0.036683	-5.648594	-64.401400	-1.413976
35697		0.844778	-0.048033	-0.531701	-0.036570	-5.613975	-64.402553	-1.420355
35698		0.844802	-0.047988	-0.531665	-0.036593	-5.600335	-64.397774	-1.432243
35699		0.844831	-0.047912	-0.531626	-0.036577	-5.585041	-64.392237	-1.439919
35700		0.844858	-0.047811	-0.531593	-0.036570	-5.562940	-64.387543	-1.453119
35701		0.844851	-0.047711	-0.531617	-0.036534	-5.546069	-64.390334	-1.458659
35702		0.844889	-0.047610	-0.531565	-0.036527	-5.523708	-64.383046	-1.472061
35703		0.844888	-0.047538	-0.531573	-0.036548	-5.504770	-64.384147	-1.486827
35704		0.844886	-0.047428	-0.531585	-0.036549	-5.479961	-64.385694	-1.502545
35705		0.844882	-0.047307	-0.531605	-0.036519	-5.457350	-64.387881	-1.512497
35706		0.844872	-0.047203	-0.531631	-0.036497	-5.437052	-64.391062	-1.522250
35707		0.844873	-0.047079	-0.531644	-0.036447	-5.416446	-64.392340	-1.528325
35708		0.844863	-0.046974	-0.531670	-0.036425	-5.396148	-64.395515	-1.538079
35709		0.844850	-0.046759	-0.531719	-0.036275	-5.369415	-64.400862	-1.534327
35710		0.844846	-0.046656	-0.531738	-0.036249	-5.350112	-64.403003	-1.542895
35711		0.844838	-0.046515	-0.531764	-0.036219	-5.322970	-64.406083	-1.555760
35712		0.844848	-0.046416	-0.531759	-0.036199	-5.303426	-64.405048	-1.565328
35713		0.844846	-0.046322	-0.531772	-0.036171	-5.286392	-64.406528	-1.572296
35714		0.844853	-0.046248	-0.531767	-0.036172	-5.269450	-64.405700	-1.583088
35715		0.844847	-0.046219	-0.531778	-0.036184	-5.261531	-64.407288	-1.589605
35716		0.844863	-0.046166	-0.531758	-0.036171	-5.251155	-64.404307	-1.594452
35717		0.844863	-0.046093	-0.531764	-0.036170	-5.234989	-64.405005	-1.604493
35718		0.844887	-0.046059	-0.531729	-0.036172	-5.226945	-64.400228	-1.609957
35719		0.844888	-0.045992	-0.531736	-0.036132	-5.217427	-64.400783	-1.610526
35720		0.844898	-0.045947	-0.531725	-0.036131	-5.207344	-64.399222	-1.616773
35721		0.844909	-0.045933	-0.531706	-0.036171	-5.198573	-64.396847	-1.627812
35722		0.844927	-0.045892	-0.531680	-0.036161	-5.190505	-64.393231	-1.631667
35723		0.844940	-0.045868	-0.531662	-0.036171	-5.183431	-64.390730	-1.637552
35724		0.844964	-0.045811	-0.531629	-0.036161	-5.171823	-64.386181	-1.643761
35725		0.844983	-0.045789	-0.531602	-0.036141	-5.169430	-64.382338	-1.642724
35726		0.845011	-0.045781	-0.531557	-0.036150	-5.165992	-64.376299	-1.646214
35727		0.845042	-0.045699	-0.531520	-0.036085	-5.156470	-64.370712	-1.643657
35728		0.845075	-0.045707	-0.531466	-0.036102	-5.155346	-64.363461	-1.646962
35729		0.845121	-0.045740	-0.531388	-0.036133	-5.157802	-64.353195	-1.649898
35730		0.845156	-0.045754	-0.531330	-0.036137	-5.159941	-64.345451	-1.649434
35731		0.845197	-0.045786	-0.531261	-0.036154	-5.164177	-64.336208	-1.649378
35732		0.845259	-0.045803	-0.531160	-0.036163	-5.165850	-64.322702	-1.650082
35733		0.845329	-0.045812	-0.531052	-0.036103	-5.175346	-64.307779	-1.636547
35734		0.845403	-0.045857	-0.530928	-0.036139	-5.179385	-64.291312	-1.639469
35735		0.845488	-0.045901	-0.530789	-0.036153	-5.186175	-64.272577	-1.637724
35736		0.845593	-0.045988	-0.530609	-0.036214	-5.195638	-64.248898	-1.640883
35737		0.845707	-0.046066	-0.530419	-0.036251	-5.206203	-64.223512	-1.640303
35738		0.845819	-0.046159	-0.530227	-0.036314	-5.216697	-64.198211	-1.643069
35739		0.845941	-0.046225	-0.530024	-0.036352	-5.224419	-64.171018	-1.644442
35740		0.846071	-0.046288	-0.529808	-0.036401	-5.229864	-64.142362	-1.648701
35741		0.846198	-0.046306	-0.529605	-0.036377	-5.235561	-64.114722	-1.642924
35742		0.846325	-0.046357	-0.529394	-0.036423	-5.238750	-64.086684	-1.648129
35743		0.846449	-0.046411	-0.529187	-0.036480	-5.241104	-64.059113	-1.655441
35744		0.846576	-0.046439	-0.528979	-0.036515	-5.240767	-64.031296	-1.661357
35745		0.846685	-0.046506	-0.528793	-0.036602	-5.242277	-64.006824	-1.673097
35746		0.846798	-0.046505	-0.528609	-0.036639	-5.235441	-63.982319	-1.683258
35747		0.846915	-0.046466	-0.528427	-0.036618	-5.228075	-63.957471	-1.685905
35748		0.847019	-0.046444	-0.528259	-0.036668	-5.214818	-63.935110	-1.701866
35749		0.847138	-0.046452	-0.528065	-0.036695	-5.211519	-63.909057	-1.708458
35750		0.847261	-0.046404	-0.527874	-0.036685	-5.200610	-63.883072	-1.714857
35751		0.847384	-0.046373	-0.527676	-0.036696	-5.190676	-63.856480	-1.723527
35752		0.847509	-0.046305	-0.527483	-0.036681	-5.176315	-63.830129	-1.731379
35753		0.847626	-0.046169	-0.527313	-0.036598	-5.156409	-63.806389	-1.733357
35754		0.847737	-0.046081	-0.527144	-0.036583	-5.137835	-63.783301	-1.743658
35755		0.847846	-0.046017	-0.526972	-0.036608	-5.118824	-63.760232	-1.759702
35756		0.847952	-0.045927	-0.526811	-0.036597	-5.099329	-63.738162	-1.771115
35757		0.848065	-0.045827	-0.526639	-0.036571	-5.079679	-63.714646	-1.780607
35758		0.848154	-0.045747	-0.526505	-0.036544	-5.064829	-63.696246	-1.786788
35759		0.848232	-0.045697	-0.526378	-0.036598	-5.045455	-63.679423	-1.806780
35760		0.848328	-0.045606	-0.526233	-0.036578	-5.027241	-63.659486	-1.815966
35761		0.848419	-0.045511	-0.526098	-0.036546	-5.009636	-63.640918	-1.823281
35762		0.848517	-0.045433	-0.525947	-0.036529	-4.993733	-63.620340	-1.831478
35763		0.848615	-0.045329	-0.525802	-0.036479	-4.976716	-63.600260	-1.835920
35764		0.848717	-0.045284	-0.525641	-0.036465	-4.967586	-63.578370	-1.840482
35765		0.848815	-0.045324	-0.525473	-0.036563	-4.961969	-63.556371	-1.857860
35766		0.848907	-0.045257	-0.525329	-0.036592	-4.942412	-63.536970	-1.874563
35767		0.849009	-0.045241	-0.525163	-0.036613	-4.935063	-63.514696	-1.882677
35768		0.849098	-0.045182	-0.525024	-0.036615	-4.920840	-63.495927	-1.892400
35769		0.849167	-0.045180	-0.524909	-0.036671	-4.912162	-63.480678	-1.905721
35770		0.849239	-0.045150	-0.524794	-0.036686	-4.902883	-63.465274	-1.914061
35771		0.849302	-0.045145	-0.524690	-0.036725	-4.895737	-63.451441	-1.924160
35772		0.849354	-0.045113	-0.524608	-0.036721	-4.888732	-63.440358	-1.928313
35773		0.849403	-0.045076	-0.524532	-0.036710	-4.881658	-63.430039	-1.931587
35774		0.849484	-0.045159	-0.524387	-0.036809	-4.885724	-63.411241	-1.942994
35775		0.849550	-0.045138	-0.524282	-0.036815	-4.879578	-63.397096	-1.948040
35776		0.849558	-0.045003	-0.524284	-0.036780	-4.854938	-63.396840	-1.958542
35777		0.849568	-0.044985	-0.524267	-0.036811	-4.846682	-63.394694	-1.967919
35778		0.849577	-0.045029	-0.524245	-0.036872	-4.847911	-63.392098	-1.975471
35779		0.849570	-0.045016	-0.524254	-0.036897	-4.841746	-63.393522	-1.982604
35780		0.849568	-0.045012	-0.524255	-0.036956	-4.833050	-63.393882	-1.995809
35781		0.849577	-0.044957	-0.524243	-0.036973	-4.818703	-63.392317	-2.007101
35782		0.849582	-0.044859	-0.524246	-0.036938	-4.801928	-63.392333	-2.012741
35783		0.849553	-0.044663	-0.524314	-0.036866	-4.769246	-63.400532	-2.022967
35784		0.849533	-0.044516	-0.524361	-0.036858	-4.738664	-63.406445	-2.040523
35785		0.849524	-0.044425	-0.524380	-0.036895	-4.713899	-63.409045	-2.060776
35786		0.849541	-0.044300	-0.524365	-0.036868	-4.690372	-63.406555	-2.071629
35787		0.849564	-0.044183	-0.524341	-0.036814	-4.671843	-63.402762	-2.075965
35788		0.849595	-0.044090	-0.524298	-0.036819	-4.650821	-63.396706	-2.089737
35789		0.849613	-0.044043	-0.524273	-0.036826	-4.639299	-63.393278	-2.097978
35790		0.849646	-0.043968	-0.524227	-0.036797	-4.626729	-63.386803	-2.101963
35791		0.849672	-0.043903	-0.524192	-0.036779	-4.614781	-63.381752	-2.107063
35792		0.849717	-0.043828	-0.524127	-0.036749	-4.602069	-63.372664	-2.111144
35793		0.849754	-0.043752	-0.524076	-0.036709	-4.590726	-63.365461	-2.112877
35794		0.849794	-0.043715	-0.524016	-0.036689	-4.584916	-63.357110	-2.114061
35795		0.849838	-0.043723	-0.523944	-0.036678	-4.587702	-63.347473	-2.111158
35796		0.849895	-0.043716	-0.523853	-0.036681	-4.585338	-63.335118	-2.113314
35797		0.849983	-0.043765	-0.523708	-0.036666	-4.597399	-63.315650	-2.104400
35798		0.850058	-0.043789	-0.523583	-0.036662	-4.602505	-63.298950	-2.101173
35799		0.850159	-0.043834	-0.523418	-0.036635	-4.614781	-63.276706	-2.090741
35800		0.850267	-0.043909	-0.523236	-0.036625	-4.631610	-63.252379	-2.079652
35801		0.850357	-0.043991	-0.523083	-0.036639	-4.646772	-63.232008	-2.072832
35802		0.850420	-0.043953	-0.522988	-0.036565	-4.647708	-63.218772	-2.062698
35803		0.850484	-0.044024	-0.522882	-0.036510	-4.669801	-63.204340	-2.042161
35804		0.850566	-0.044182	-0.522735	-0.036523	-4.701640	-63.185075	-2.024810
35805		0.850640	-0.044322	-0.522602	-0.036529	-4.730409	-63.167600	-2.008496
35806		0.850690	-0.044449	-0.522512	-0.036495	-4.761947	-63.155631	-1.984924
35807		0.850748	-0.044568	-0.522411	-0.036453	-4.792570	-63.142004	-1.960881
35808		0.850805	-0.044687	-0.522311	-0.036407	-4.823802	-63.128577	-1.935930
35809		0.850837	-0.044830	-0.522247	-0.036395	-4.855877	-63.120307	-1.914939
35810		0.850889	-0.044939	-0.522155	-0.036356	-4.883911	-63.107942	-1.892874
35811		0.850936	-0.045012	-0.522077	-0.036300	-4.906797	-63.097265	-1.871611
35812		0.850986	-0.045117	-0.521989	-0.036255	-4.934747	-63.085473	-1.848811
35813		0.851030	-0.045172	-0.521917	-0.036196	-4.953869	-63.075562	-1.829451
35814		0.851069	-0.045197	-0.521856	-0.036140	-4.966314	-63.066999	-1.814553
35815		0.851122	-0.045233	-0.521771	-0.036053	-4.985068	-63.055206	-1.791759
35816		0.851182	-0.045271	-0.521674	-0.035985	-5.001442	-63.041901	-1.773022
35817		0.851240	-0.045322	-0.521580	-0.035928	-5.019258	-63.028954	-1.754879
35818		0.851305	-0.045347	-0.521478	-0.035842	-5.035281	-63.014783	-1.733987
35819		0.851358	-0.045393	-0.521391	-0.035789	-5.051714	-63.002934	-1.717125
35820		0.851413	-0.045431	-0.521303	-0.035706	-5.070111	-62.990739	-1.695227
35821		0.851477	-0.045403	-0.521212	-0.035560	-5.082502	-62.977485	-1.668453
35822		0.851523	-0.045397	-0.521142	-0.035481	-5.091131	-62.967678	-1.652862
35823		0.851573	-0.045389	-0.521068	-0.035367	-5.103882	-62.957053	-1.630047
35824		0.851619	-0.045403	-0.520999	-0.035264	-5.119874	-62.947234	-1.606766
35825		0.851659	-0.045356	-0.520949	-0.035107	-5.129924	-62.939428	-1.579858
35826		0.851707	-0.045360	-0.520878	-0.034997	-5.144650	-62.929194	-1.556338
35827		0.851747	-0.045331	-0.520827	-0.034812	-5.162319	-62.921263	-1.520993
35828		0.851790	-0.045347	-0.520761	-0.034719	-5.177352	-62.911879	-1.499675
35829		0.851821	-0.045418	-0.520709	-0.034653	-5.200879	-62.904600	-1.476628
35830		0.851854	-0.045424	-0.520660	-0.034553	-5.214843	-62.897422	-1.454918
35831		0.851869	-0.045487	-0.520632	-0.034530	-5.231293	-62.893534	-1.441842
35832		0.851894	-0.045495	-0.520596	-0.034454	-5.242453	-62.888303	-1.425129
35833		0.851910	-0.045489	-0.520574	-0.034376	-5.251283	-62.884919	-1.409290
35834		0.851926	-0.045484	-0.520554	-0.034312	-5.258357	-62.881818	-1.396529
35835		0.851926	-0.045496	-0.520557	-0.034245	-5.269738	-62.881829	-1.380504
35836		0.851936	-0.045474	-0.520547	-0.034172	-5.274564	-62.879946	-1.367849
35837		0.851936	-0.045503	-0.520543	-0.034189	-5.278478	-62.879562	-1.367716
35838		0.851926	-0.045507	-0.520563	-0.034152	-5.284173	-62.882027	-1.359251
35839		0.851902	-0.045514	-0.520603	-0.034120	-5.290383	-62.887295	-1.350925
35840		0.851886	-0.045539	-0.520629	-0.034099	-5.298576	-62.890574	-1.342969
35841		0.851851	-0.045596	-0.520678	-0.034139	-5.306233	-62.897487	-1.343308
35842		0.851819	-0.045625	-0.520728	-0.034139	-5.312808	-62.904301	-1.339021
35843		0.851778	-0.045685	-0.520786	-0.034188	-5.319709	-62.912446	-1.341170
35844		0.851741	-0.045734	-0.520841	-0.034204	-5.328789	-62.920074	-1.337388
35845		0.851701	-0.045877	-0.520888	-0.034292	-5.348342	-62.927134	-1.336970
35846		0.851664	-0.045932	-0.520942	-0.034323	-5.356558	-62.934633	-1.335882
35847		0.851623	-0.046011	-0.520999	-0.034376	-5.367187	-62.942809	-1.336159
35848		0.851581	-0.046079	-0.521059	-0.034425	-5.375743	-62.951172	-1.337239
35849		0.851536	-0.046158	-0.521122	-0.034466	-5.388111	-62.960099	-1.334840
35850		0.851484	-0.046245	-0.521194	-0.034536	-5.398220	-62.970315	-1.337556
35851		0.851417	-0.046376	-0.521284	-0.034658	-5.411288	-62.983357	-1.345463
35852		0.851373	-0.046485	-0.521343	-0.034723	-5.426748	-62.991839	-1.344471
35853		0.851315	-0.046567	-0.521426	-0.034775	-5.438250	-63.003454	-1.343943
35854		0.851238	-0.046633	-0.521542	-0.034844	-5.444447	-63.019590	-1.348835
35855		0.851169	-0.046729	-0.521642	-0.034890	-5.459919	-63.033547	-1.344978
35856		0.851089	-0.046768	-0.521766	-0.034943	-5.462630	-63.050494	-1.349709
35857		0.851011	-0.046864	-0.521877	-0.035047	-5.470686	-63.066325	-1.358145
35858		0.850928	-0.046908	-0.522005	-0.035091	-5.475550	-63.083800	-1.360405
35859		0.850839	-0.047003	-0.522137	-0.035181	-5.485260	-63.102259	-1.365826
35860		0.850759	-0.047057	-0.522258	-0.035247	-5.489286	-63.119019	-1.371575
35861		0.850681	-0.047092	-0.522377	-0.035298	-5.491179	-63.135499	-1.376603
35862		0.850585	-0.047104	-0.522529	-0.035363	-5.486641	-63.156248	-1.387315
35863		0.850502	-0.047151	-0.522657	-0.035403	-5.492683	-63.173861	-1.388268
35864		0.850424	-0.047200	-0.522774	-0.035478	-5.494566	-63.190079	-1.396483
35865		0.850351	-0.047234	-0.522887	-0.035508	-5.498945	-63.205621	-1.397203
35866		0.850288	-0.047310	-0.522977	-0.035598	-5.504111	-63.218405	-1.405740
35867		0.850229	-0.047425	-0.523055	-0.035698	-5.516708	-63.229727	-1.410921
35868		0.850171	-0.047472	-0.523140	-0.035776	-5.517172	-63.241752	-1.420653
35869		0.850102	-0.047597	-0.523235	-0.035868	-5.533013	-63.255279	-1.422835
35870		0.850036	-0.047681	-0.523326	-0.035985	-5.536367	-63.268386	-1.436016
35871		0.849948	-0.047774	-0.523454	-0.036090	-5.543974	-63.286430	-1.444637
35872		0.849823	-0.047783	-0.523654	-0.036125	-5.542935	-63.313617	-1.448970
35873		0.849723	-0.047863	-0.523804	-0.036184	-5.553902	-63.334282	-1.449314
35874		0.849621	-0.047977	-0.523953	-0.036276	-5.567663	-63.355126	-1.452393
35875		0.849509	-0.048077	-0.524121	-0.036350	-5.581138	-63.378371	-1.453151
35876		0.849423	-0.048169	-0.524245	-0.036427	-5.592158	-63.395789	-1.455920
35877		0.849355	-0.048166	-0.524354	-0.036450	-5.589451	-63.410644	-1.460130
35878		0.849261	-0.048123	-0.524508	-0.036485	-5.576652	-63.431410	-1.471954
35879		0.849162	-0.048075	-0.524670	-0.036522	-5.562621	-63.453367	-1.484734
35880		0.849071	-0.048027	-0.524818	-0.036566	-5.547621	-63.473593	-1.499085
35881		0.848987	-0.047982	-0.524958	-0.036574	-5.538145	-63.492398	-1.505268
35882		0.848924	-0.047947	-0.525062	-0.036591	-5.528936	-63.506385	-1.512733
35883		0.848862	-0.047950	-0.525161	-0.036593	-5.530410	-63.519810	-1.511526
35884		0.848814	-0.047944	-0.525240	-0.036608	-5.527611	-63.530448	-1.514859
35885		0.848771	-0.047911	-0.525316	-0.036533	-5.531413	-63.540233	-1.501912
35886		0.848727	-0.047907	-0.525387	-0.036543	-5.529584	-63.549832	-1.504091
35887		0.848686	-0.047905	-0.525457	-0.036508	-5.534501	-63.558993	-1.495976
35888		0.848651	-0.047895	-0.525513	-0.036513	-5.532402	-63.566568	-1.497558
35889		0.848623	-0.047886	-0.525561	-0.036488	-5.534079	-63.572867	-1.492962
35890		0.848586	-0.047896	-0.525619	-0.036498	-5.535463	-63.580792	-1.493065
35891		0.848555	-0.047911	-0.525669	-0.036488	-5.540664	-63.587471	-1.488257
35892		0.848527	-0.047919	-0.525714	-0.036473	-5.544912	-63.593445	-1.483304
35893		0.848498	-0.047899	-0.525764	-0.036460	-5.542771	-63.600037	-1.482625
35894		0.848485	-0.047879	-0.525788	-0.036441	-5.541077	-63.603108	-1.481066
35895		0.848480	-0.047865	-0.525802	-0.036382	-5.546176	-63.604565	-1.469807
35896		0.848479	-0.047859	-0.525804	-0.036376	-5.545530	-63.604851	-1.469479
35897		0.848458	-0.047771	-0.525850	-0.036309	-5.535751	-63.610415	-1.466175
35898		0.848422	-0.047629	-0.525926	-0.036239	-5.514796	-63.619902	-1.469349
35899		0.848406	-0.047712	-0.525939	-0.036314	-5.522850	-63.622313	-1.474441
35900		0.848396	-0.047733	-0.525953	-0.036326	-5.525987	-63.624392	-1.474021
35901		0.848382	-0.047763	-0.525971	-0.036343	-5.530456	-63.626916	-1.473419
35902		0.848343	-0.047708	-0.526041	-0.036311	-5.523519	-63.636060	-1.473055
35903		0.848342	-0.047645	-0.526055	-0.036207	-5.523805	-63.637176	-1.458737
35904		0.848320	-0.047609	-0.526098	-0.036165	-5.522025	-63.642572	-1.453984
35905		0.848322	-0.047589	-0.526097	-0.036150	-5.519683	-63.642326	-1.453387
35906		0.848312	-0.047558	-0.526118	-0.036124	-5.516732	-63.644990	-1.451586
35907		0.848310	-0.047487	-0.526133	-0.036053	-5.510877	-63.646408	-1.445591
35908		0.848308	-0.047455	-0.526141	-0.036002	-5.510796	-63.647122	-1.438729
35909		0.848297	-0.047379	-0.526169	-0.035967	-5.499084	-63.650512	-1.441127
35910		0.848305	-0.047357	-0.526160	-0.035923	-5.500023	-63.649025	-1.434703
35911		0.848300	-0.047342	-0.526171	-0.035899	-5.500223	-63.650332	-1.431172
35912		0.848300	-0.047307	-0.526178	-0.035866	-5.497003	-63.650971	-1.428774
35913		0.848295	-0.047217	-0.526201	-0.035766	-5.491187	-63.653248	-1.418726
35914		0.848287	-0.047191	-0.526218	-0.035745	-5.488264	-63.655328	-1.417716
35915		0.848278	-0.047162	-0.526236	-0.035713	-5.486546	-63.657543	-1.414329
35916		0.848278	-0.047125	-0.526241	-0.035699	-5.480183	-63.658108	-1.416396
35917		0.848270	-0.047104	-0.526257	-0.035676	-5.478925	-63.660071	-1.413953
35918		0.848283	-0.047135	-0.526234	-0.035666	-5.486924	-63.656963	-1.407751
35919		0.848274	-0.047179	-0.526242	-0.035701	-5.491950	-63.658229	-1.409243
35920		0.848273	-0.047190	-0.526243	-0.035690	-5.495747	-63.658410	-1.405472
35921		0.848274	-0.047184	-0.526244	-0.035670	-5.497181	-63.658313	-1.401852
35922		0.848275	-0.047190	-0.526241	-0.035668	-5.498782	-63.657965	-1.400597
35923		0.848275	-0.047194	-0.526243	-0.035654	-5.501502	-63.658097	-1.397071
35924		0.848274	-0.047185	-0.526244	-0.035668	-5.497719	-63.658311	-1.401203
35925		0.848282	-0.047188	-0.526229	-0.035692	-5.495014	-63.656459	-1.406311
35926		0.848303	-0.047183	-0.526195	-0.035696	-5.492923	-63.651992	-1.408340
35927		0.848313	-0.047126	-0.526189	-0.035638	-5.488390	-63.650638	-1.403356
35928		0.848326	-0.047106	-0.526168	-0.035644	-5.483091	-63.647842	-1.407456
35929		0.848335	-0.047098	-0.526155	-0.035651	-5.480125	-63.646109	-1.410439
35930		0.848341	-0.047081	-0.526146	-0.035653	-5.476051	-63.644879	-1.413177
35931		0.848335	-0.047080	-0.526153	-0.035686	-5.471421	-63.646049	-1.420453
35932		0.848332	-0.047053	-0.526161	-0.035680	-5.466332	-63.647019	-1.422749
35933		0.848328	-0.046999	-0.526175	-0.035659	-5.457500	-63.648649	-1.425357
35934		0.848308	-0.046959	-0.526208	-0.035679	-5.446327	-63.653238	-1.434788
35935		0.848294	-0.046907	-0.526238	-0.035658	-5.438002	-63.656972	-1.437001
35936		0.848276	-0.046880	-0.526266	-0.035681	-5.429063	-63.660927	-1.445518
35937		0.848256	-0.046840	-0.526303	-0.035683	-5.420428	-63.665789	-1.450953
35938		0.848239	-0.046798	-0.526334	-0.035693	-5.410197	-63.669918	-1.458439
35939		0.848221	-0.046672	-0.526380	-0.035605	-5.394811	-63.675400	-1.455916
35940		0.848204	-0.046599	-0.526413	-0.035606	-5.378851	-63.679802	-1.465808
35941		0.848184	-0.046536	-0.526449	-0.035624	-5.362852	-63.684581	-1.478002
35942		0.848175	-0.046466	-0.526469	-0.035646	-5.344738	-63.687285	-1.492011
35943		0.848168	-0.046463	-0.526478	-0.035692	-5.337956	-63.688735	-1.502389
35944		0.848156	-0.046421	-0.526499	-0.035715	-5.325541	-63.691744	-1.513200
35945		0.848145	-0.046436	-0.526511	-0.035767	-5.322167	-63.693705	-1.522147
35946		0.848135	-0.046426	-0.526529	-0.035770	-5.319578	-63.696062	-1.524126
35947		0.848127	-0.046431	-0.526542	-0.035748	-5.323803	-63.697744	-1.518413
35948		0.848116	-0.046440	-0.526560	-0.035727	-5.328801	-63.700079	-1.512478
35949		0.848104	-0.046510	-0.526572	-0.035744	-5.342017	-63.701924	-1.506416
35950		0.848079	-0.046514	-0.526613	-0.035737	-5.344088	-63.707368	-1.503958
35951		0.848066	-0.046532	-0.526636	-0.035678	-5.356502	-63.710094	-1.488155
35952		0.848053	-0.046555	-0.526658	-0.035646	-5.365923	-63.712909	-1.477975
35953		0.848032	-0.046598	-0.526687	-0.035648	-5.375310	-63.716930	-1.472215
35954		0.848007	-0.046595	-0.526729	-0.035625	-5.378326	-63.722497	-1.466990
35955		0.847989	-0.046590	-0.526764	-0.035564	-5.385685	-63.726704	-1.454032
35956		0.847975	-0.046609	-0.526784	-0.035551	-5.391963	-63.729443	-1.448320
35957		0.847965	-0.046620	-0.526804	-0.035490	-5.402680	-63.731701	-1.433350
35958		0.847935	-0.046615	-0.526854	-0.035472	-5.404733	-63.738304	-1.429271
35959		0.847922	-0.046654	-0.526874	-0.035442	-5.417653	-63.740907	-1.417074
35960		0.847903	-0.046661	-0.526905	-0.035401	-5.424838	-63.744926	-1.406993
35961		0.847889	-0.046685	-0.526929	-0.035359	-5.436032	-63.747811	-1.394251
35962		0.847888	-0.046729	-0.526929	-0.035339	-5.448731	-63.747790	-1.383569
35963		0.847884	-0.046774	-0.526930	-0.035336	-5.458951	-63.748040	-1.376914
35964		0.847852	-0.046746	-0.526989	-0.035282	-5.460663	-63.755514	-1.368215
35965		0.847839	-0.046793	-0.527008	-0.035241	-5.476927	-63.757923	-1.352416
35966		0.847860	-0.046937	-0.526959	-0.035261	-5.505355	-63.751740	-1.337695
35967		0.847830	-0.046911	-0.527016	-0.035195	-5.509227	-63.758875	-1.326115
35968		0.847773	-0.046893	-0.527112	-0.035139	-5.513709	-63.771499	-1.315235
35969		0.847728	-0.047043	-0.527169	-0.035175	-5.542430	-63.779604	-1.301957
35970		0.847668	-0.047152	-0.527257	-0.035163	-5.568918	-63.791566	-1.283352
35971		0.847601	-0.047188	-0.527367	-0.035073	-5.590395	-63.805826	-1.257205
35972		0.847568	-0.047240	-0.527419	-0.035031	-5.608087	-63.812623	-1.240162
35973		0.847543	-0.047249	-0.527461	-0.034980	-5.617436	-63.818008	-1.227247
35974		0.847486	-0.047244	-0.527555	-0.034937	-5.623280	-63.830447	-1.217329
35975		0.847447	-0.047274	-0.527614	-0.034954	-5.628111	-63.838493	-1.216246
35976		0.847398	-0.047273	-0.527695	-0.034931	-5.631777	-63.849248	-1.210468
35977		0.847348	-0.047250	-0.527781	-0.034878	-5.635020	-63.860545	-1.200698
35978		0.847317	-0.047254	-0.527831	-0.034856	-5.639395	-63.867081	-1.194801
35979		0.847282	-0.047279	-0.527888	-0.034814	-5.651232	-63.874566	-1.181429
35980		0.847249	-0.047296	-0.527941	-0.034782	-5.660068	-63.881570	-1.171249
35981		0.847219	-0.047386	-0.527979	-0.034818	-5.675299	-63.887037	-1.166397
35982		0.847198	-0.047403	-0.528013	-0.034785	-5.683860	-63.891438	-1.156446
35983		0.847181	-0.047399	-0.528044	-0.034748	-5.688411	-63.895359	-1.148392
35984		0.847174	-0.047410	-0.528055	-0.034723	-5.694465	-63.896637	-1.141223
35985		0.847159	-0.047400	-0.528081	-0.034702	-5.695446	-63.900042	-1.137509
35986		0.847154	-0.047391	-0.528091	-0.034701	-5.693850	-63.901371	-1.138314
35987		0.847149	-0.047370	-0.528103	-0.034672	-5.693112	-63.902703	-1.134794
35988		0.847143	-0.047353	-0.528113	-0.034673	-5.689281	-63.904087	-1.137333
35989		0.847138	-0.047359	-0.528123	-0.034661	-5.692500	-63.905309	-1.133592
35990		0.847134	-0.047400	-0.528123	-0.034688	-5.697939	-63.905606	-1.133817
35991		0.847138	-0.047415	-0.528116	-0.034676	-5.702628	-63.904533	-1.129443
35992		0.847154	-0.047470	-0.528084	-0.034702	-5.710985	-63.900558	-1.127838
35993		0.847164	-0.047535	-0.528057	-0.034775	-5.714915	-63.897488	-1.135456
35994		0.847156	-0.047468	-0.528077	-0.034749	-5.704050	-63.899906	-1.138571
35995		0.847161	-0.047448	-0.528073	-0.034732	-5.701852	-63.899234	-1.137649
35996		0.847174	-0.047479	-0.528046	-0.034775	-5.702551	-63.895887	-1.143208
35997		0.847201	-0.047437	-0.528009	-0.034730	-5.699015	-63.890491	-1.139553
35998		0.847181	-0.047448	-0.528040	-0.034735	-5.701213	-63.894770	-1.138605
35999		0.847202	-0.047468	-0.528004	-0.034731	-5.705717	-63.889951	-1.135510
36000		0.847221	-0.047481	-0.527973	-0.034740	-5.707054	-63.885853	-1.136104
36001		0.847213	-0.047498	-0.527984	-0.034754	-5.708863	-63.887342	-1.136772
36002		0.847219	-0.047517	-0.527970	-0.034779	-5.709539	-63.885728	-1.139895
36003		0.847207	-0.047494	-0.527991	-0.034784	-5.703936	-63.888580	-1.143904
36004		0.847225	-0.047538	-0.527958	-0.034802	-5.711019	-63.884201	-1.142072
36005		0.847205	-0.047595	-0.527977	-0.034919	-5.707837	-63.887640	-1.159678
36006		0.847211	-0.047624	-0.527963	-0.034942	-5.710749	-63.885972	-1.161068
36007		0.847202	-0.047665	-0.527971	-0.034976	-5.715244	-63.887311	-1.162825
36008		0.847204	-0.047677	-0.527966	-0.034990	-5.715908	-63.886854	-1.164326
36009		0.847202	-0.047667	-0.527970	-0.034996	-5.713007	-63.887377	-1.166999
36010		0.847213	-0.047689	-0.527949	-0.035018	-5.714654	-63.884726	-1.168972
36011		0.847223	-0.047677	-0.527934	-0.035008	-5.713188	-63.882575	-1.168677
36012		0.847246	-0.047730	-0.527891	-0.035037	-5.720290	-63.877042	-1.168468
36013		0.847273	-0.047753	-0.527844	-0.035071	-5.720306	-63.870926	-1.173238
36014		0.847307	-0.047804	-0.527781	-0.035100	-5.727118	-63.862792	-1.173273
36015		0.847346	-0.047839	-0.527717	-0.035093	-5.734964	-63.854153	-1.167789
36016		0.847387	-0.047882	-0.527645	-0.035110	-5.741468	-63.844572	-1.166449
36017		0.847437	-0.047905	-0.527564	-0.035108	-5.745890	-63.833638	-1.163928
36018		0.847481	-0.047972	-0.527483	-0.035160	-5.752739	-63.823189	-1.167207
36019		0.847522	-0.048026	-0.527410	-0.035203	-5.758011	-63.813704	-1.170178
36020		0.847590	-0.048087	-0.527292	-0.035239	-5.765230	-63.798166	-1.171178
36021		0.847645	-0.048101	-0.527199	-0.035283	-5.761376	-63.785981	-1.180122
36022		0.847723	-0.048200	-0.527061	-0.035353	-5.772155	-63.767897	-1.183666
36023		0.847841	-0.048250	-0.526866	-0.035359	-5.780366	-63.741718	-1.180483
36024		0.848003	-0.048317	-0.526596	-0.035399	-5.786597	-63.705747	-1.183637
36025		0.848169	-0.048402	-0.526316	-0.035480	-5.791522	-63.668629	-1.193085
36026		0.848323	-0.048463	-0.526058	-0.035518	-5.796813	-63.634256	-1.196555
36027		0.848471	-0.048595	-0.525800	-0.035633	-5.807578	-63.600514	-1.206881
36028		0.848635	-0.048663	-0.525524	-0.035698	-5.810755	-63.563860	-1.215265
36029		0.848828	-0.048725	-0.525205	-0.035725	-5.817496	-63.521140	-1.216599
36030		0.849022	-0.048788	-0.524879	-0.035821	-5.814894	-63.478081	-1.233165
36031		0.849220	-0.048861	-0.524545	-0.035938	-5.811658	-63.433941	-1.252868
36032		0.849439	-0.048942	-0.524173	-0.036053	-5.809958	-63.384872	-1.271623
36033		0.849669	-0.049018	-0.523785	-0.036184	-5.804954	-63.333684	-1.294631
36034		0.849877	-0.049088	-0.523432	-0.036321	-5.798391	-63.287175	-1.319141
36035		0.850079	-0.049139	-0.523091	-0.036433	-5.791120	-63.242172	-1.340606
36036		0.850280	-0.049189	-0.522751	-0.036554	-5.782465	-63.197422	-1.364264
36037		0.850459	-0.049266	-0.522441	-0.036704	-5.776342	-63.156912	-1.389981
36038		0.850619	-0.049293	-0.522170	-0.036820	-5.764166	-63.121248	-1.414640
36039		0.850755	-0.049284	-0.521945	-0.036893	-5.750476	-63.091520	-1.434050
36040		0.850894	-0.049279	-0.521712	-0.036991	-5.734189	-63.060887	-1.458570
36041		0.851013	-0.049266	-0.521512	-0.037086	-5.716925	-63.034633	-1.483051
36042		0.851118	-0.049229	-0.521337	-0.037167	-5.696739	-63.011656	-1.507250
36043		0.851202	-0.049171	-0.521203	-0.037215	-5.676812	-62.993869	-1.526650
36044		0.851300	-0.049126	-0.521044	-0.037259	-5.659643	-62.972696	-1.544036
36045		0.851393	-0.049087	-0.520891	-0.037319	-5.642131	-62.952544	-1.563672
36046		0.851484	-0.049033	-0.520743	-0.037381	-5.621001	-62.932915	-1.585704
36047		0.851573	-0.049071	-0.520585	-0.037501	-5.612157	-62.912634	-1.608040
36048		0.851654	-0.049026	-0.520454	-0.037531	-5.597421	-62.895175	-1.621887
36049		0.851730	-0.048945	-0.520340	-0.037518	-5.580699	-62.879551	-1.630869
36050		0.851799	-0.048901	-0.520228	-0.037549	-5.566222	-62.864705	-1.644489
36051		0.851850	-0.048850	-0.520148	-0.037566	-5.552301	-62.853938	-1.655747
36052		0.851905	-0.048819	-0.520060	-0.037587	-5.542344	-62.842193	-1.665057
36053		0.851957	-0.048786	-0.519974	-0.037635	-5.528203	-62.830975	-1.680592
36054		0.852009	-0.048726	-0.519892	-0.037657	-5.511757	-62.819959	-1.694066
36055		0.852066	-0.048662	-0.519808	-0.037631	-5.500755	-62.808323	-1.697691
36056		0.852109	-0.048589	-0.519745	-0.037611	-5.487179	-62.799717	-1.703668
36057		0.852159	-0.048532	-0.519668	-0.037612	-5.474204	-62.789228	-1.712124
36058		0.852206	-0.048492	-0.519595	-0.037596	-5.467195	-62.779299	-1.714686
36059		0.852254	-0.048478	-0.519516	-0.037625	-5.459925	-62.768828	-1.723302
36060		0.852306	-0.048481	-0.519433	-0.037610	-5.461625	-62.757531	-1.720808
36061		0.852353	-0.048459	-0.519358	-0.037582	-5.460051	-62.747372	-1.718356
36062		0.852365	-0.048381	-0.519352	-0.037509	-5.452811	-62.745913	-1.712930
36063		0.852400	-0.048434	-0.519289	-0.037519	-5.462352	-62.737537	-1.708800
36064		0.852432	-0.048405	-0.519242	-0.037458	-5.463691	-62.730916	-1.700066
36065		0.852380	-0.048234	-0.519355	-0.037311	-5.447163	-62.744761	-1.689823
36066		0.852343	-0.048192	-0.519426	-0.037229	-5.449348	-62.753603	-1.677097
36067		0.852318	-0.048194	-0.519472	-0.037159	-5.459236	-62.759393	-1.661502
36068		0.852276	-0.048178	-0.519546	-0.037108	-5.463058	-62.768931	-1.651974
36069		0.852231	-0.048245	-0.519611	-0.037126	-5.475651	-62.777943	-1.646272
36070		0.852235	-0.048203	-0.519616	-0.037038	-5.478191	-62.777859	-1.632924
36071		0.852194	-0.048120	-0.519696	-0.036955	-5.471659	-62.787960	-1.625388
36072		0.852131	-0.048040	-0.519812	-0.036878	-5.465657	-62.802822	-1.618095
36073		0.852089	-0.047984	-0.519890	-0.036822	-5.461553	-62.812893	-1.612703
36074		0.852050	-0.047912	-0.519966	-0.036742	-5.457295	-62.822453	-1.604107
36075		0.852012	-0.047853	-0.520036	-0.036702	-5.450358	-62.831507	-1.602628
36076		0.851980	-0.047796	-0.520100	-0.036620	-5.449260	-62.839386	-1.592024
36077		0.851976	-0.047810	-0.520108	-0.036587	-5.456598	-62.840314	-1.583092
36078		0.851977	-0.047762	-0.520115	-0.036512	-5.456109	-62.840732	-1.573287
36079		0.851978	-0.047755	-0.520117	-0.036483	-5.458659	-62.840756	-1.567709
36080		0.851987	-0.047696	-0.520113	-0.036414	-5.454853	-62.839644	-1.560870
36081		0.852002	-0.047655	-0.520098	-0.036344	-5.455046	-62.837067	-1.551394
36082		0.852013	-0.047599	-0.520089	-0.036281	-5.451281	-62.835371	-1.545338
36083		0.852016	-0.047568	-0.520088	-0.036259	-5.447514	-62.835064	-1.544619
36084		0.852008	-0.047522	-0.520109	-0.036209	-5.444264	-62.837448	-1.539764
36085		0.851997	-0.047500	-0.520131	-0.036181	-5.443341	-62.840208	-1.536492
36086		0.851995	-0.047479	-0.520140	-0.036108	-5.448424	-62.840932	-1.523624
36087		0.851968	-0.047437	-0.520194	-0.036035	-5.449393	-62.847614	-1.512924
36088		0.851962	-0.047434	-0.520207	-0.035997	-5.453932	-62.849094	-1.504929
36089		0.851952	-0.047396	-0.520231	-0.035928	-5.454940	-62.851840	-1.494979
36090		0.851928	-0.047314	-0.520285	-0.035840	-5.449293	-62.858346	-1.486256
36091		0.851876	-0.047191	-0.520386	-0.035754	-5.435063	-62.871197	-1.482879
36092		0.851841	-0.047173	-0.520448	-0.035707	-5.437831	-62.879134	-1.474576
36093		0.851829	-0.047174	-0.520471	-0.035668	-5.443247	-62.881952	-1.465935
36094		0.851788	-0.047090	-0.520552	-0.035584	-5.436896	-62.892120	-1.458135
36095		0.851739	-0.046980	-0.520647	-0.035497	-5.425541	-62.904195	-1.452915
36096		0.851708	-0.046852	-0.520716	-0.035401	-5.411190	-62.912635	-1.448441
36097		0.851649	-0.046700	-0.520834	-0.035272	-5.396337	-62.927436	-1.439544
36098		0.851633	-0.046538	-0.520884	-0.035157	-5.377095	-62.933049	-1.435609
36099		0.851612	-0.046391	-0.520938	-0.035051	-5.359916	-62.939457	-1.431578
36100		0.851605	-0.046242	-0.520972	-0.034925	-5.344751	-62.942922	-1.423713
36101		0.851598	-0.046137	-0.520995	-0.034867	-5.329894	-62.945516	-1.424945
36102		0.851608	-0.046024	-0.520996	-0.034779	-5.317126	-62.944860	-1.420946
36103		0.851624	-0.045939	-0.520979	-0.034734	-5.304461	-62.942259	-1.422718
36104		0.851640	-0.045880	-0.520960	-0.034704	-5.295607	-62.939364	-1.424243
36105		0.851650	-0.045904	-0.520938	-0.034767	-5.292355	-62.936788	-1.434858
36106		0.851676	-0.045890	-0.520895	-0.034788	-5.286174	-62.931241	-1.441648
36107		0.851703	-0.045875	-0.520851	-0.034806	-5.280173	-62.925321	-1.447901
36108		0.851721	-0.045914	-0.520814	-0.034861	-5.281140	-62.920808	-1.454864
36109		0.851745	-0.046015	-0.520756	-0.035009	-5.282965	-62.914128	-1.473982
36110		0.851766	-0.046033	-0.520716	-0.035077	-5.277499	-62.909178	-1.486708
36111		0.851789	-0.046115	-0.520663	-0.035218	-5.276238	-62.903023	-1.506637
36112		0.851802	-0.046127	-0.520634	-0.035285	-5.269795	-62.899697	-1.519699
36113		0.851804	-0.046202	-0.520614	-0.035429	-5.267026	-62.898038	-1.540840
36114		0.851825	-0.046192	-0.520578	-0.035470	-5.259037	-62.893414	-1.551450
36115		0.851851	-0.046200	-0.520532	-0.035516	-5.254418	-62.887470	-1.560647
36116		0.851899	-0.046183	-0.520452	-0.035565	-5.243890	-62.877065	-1.574055
36117		0.851955	-0.046214	-0.520353	-0.035623	-5.242148	-62.864218	-1.583393
36118		0.851993	-0.046188	-0.520291	-0.035665	-5.230617	-62.856017	-1.596339
36119		0.852052	-0.046163	-0.520196	-0.035668	-5.223996	-62.843303	-1.601361
36120		0.852109	-0.046168	-0.520101	-0.035703	-5.219720	-62.830707	-1.609162
36121		0.852154	-0.046192	-0.520020	-0.035774	-5.214934	-62.820351	-1.622014
36122		0.852205	-0.046203	-0.519932	-0.035811	-5.211872	-62.808750	-1.629282
36123		0.852238	-0.046228	-0.519873	-0.035849	-5.211777	-62.801111	-1.634729
36124		0.852271	-0.046262	-0.519812	-0.035912	-5.210483	-62.793430	-1.644263
36125		0.852310	-0.046309	-0.519742	-0.035927	-5.217986	-62.784257	-1.642056
36126		0.852316	-0.046349	-0.519725	-0.035983	-5.219216	-62.782361	-1.648802
36127		0.852329	-0.046421	-0.519692	-0.036070	-5.223092	-62.778615	-1.658357
36128		0.852332	-0.046466	-0.519679	-0.036117	-5.226435	-62.777254	-1.662668
36129		0.852322	-0.046546	-0.519681	-0.036218	-5.230489	-62.778342	-1.673698
36130		0.852333	-0.046577	-0.519660	-0.036237	-5.234429	-62.775637	-1.673912
36131		0.852339	-0.046566	-0.519653	-0.036205	-5.236278	-62.774528	-1.668569
36132		0.852351	-0.046632	-0.519624	-0.036238	-5.245824	-62.770982	-1.667321
36133		0.852367	-0.046653	-0.519597	-0.036222	-5.252126	-62.767306	-1.661472
36134		0.852350	-0.046636	-0.519628	-0.036224	-5.248679	-62.771322	-1.663660
36135		0.852355	-0.046771	-0.519599	-0.036334	-5.262974	-62.768386	-1.669845
36136		0.852363	-0.046786	-0.519585	-0.036315	-5.268622	-62.766499	-1.663875
36137		0.852373	-0.046857	-0.519562	-0.036324	-5.282348	-62.763623	-1.656836
36138		0.852419	-0.046894	-0.519486	-0.036285	-5.294725	-62.753250	-1.644544
36139		0.852460	-0.046906	-0.519420	-0.036264	-5.299579	-62.744226	-1.639077
36140		0.852499	-0.046932	-0.519353	-0.036262	-5.304920	-62.735339	-1.635828
36141		0.852526	-0.046961	-0.519304	-0.036298	-5.306028	-62.729016	-1.640230
36142		0.852550	-0.047032	-0.519258	-0.036293	-5.321389	-62.722979	-1.630490
36143		0.852566	-0.047042	-0.519231	-0.036285	-5.324317	-62.719350	-1.627760
36144		0.852557	-0.047095	-0.519242	-0.036276	-5.336926	-62.720823	-1.618863
36145		0.852531	-0.047064	-0.519294	-0.036183	-5.342942	-62.727134	-1.602339
36146		0.852532	-0.047051	-0.519299	-0.036097	-5.351090	-62.727335	-1.585924
36147		0.852531	-0.047112	-0.519298	-0.036072	-5.367601	-62.727120	-1.572420
36148		0.852565	-0.047079	-0.519252	-0.035966	-5.373796	-62.720184	-1.554722
36149		0.852557	-0.047114	-0.519260	-0.035994	-5.377768	-62.721490	-1.556014
36150		0.852587	-0.047073	-0.519218	-0.035930	-5.376981	-62.715466	-1.548128
36151		0.852563	-0.047153	-0.519246	-0.036003	-5.384838	-62.719779	-1.553024
36152		0.852579	-0.047095	-0.519231	-0.035920	-5.382965	-62.717125	-1.543110
36153		0.852559	-0.047120	-0.519265	-0.035874	-5.394636	-62.721433	-1.529581
36154		0.852558	-0.047082	-0.519275	-0.035807	-5.395454	-62.722239	-1.520007
36155		0.852510	-0.047032	-0.519366	-0.035703	-5.398921	-62.733696	-1.503474
36156		0.852471	-0.046944	-0.519442	-0.035627	-5.390526	-62.743321	-1.498059
36157		0.852404	-0.047019	-0.519544	-0.035644	-5.405100	-62.757147	-1.490963
36158		0.852400	-0.047037	-0.519551	-0.035607	-5.413996	-62.757940	-1.480461
36159		0.852347	-0.047017	-0.519642	-0.035580	-5.413920	-62.769912	-1.476455
36160		0.852303	-0.046966	-0.519723	-0.035515	-5.412315	-62.780265	-1.468256
36161		0.852239	-0.047072	-0.519817	-0.035541	-5.432300	-62.793215	-1.459030
36162		0.852187	-0.047086	-0.519904	-0.035489	-5.443018	-62.804614	-1.445007
36163		0.852100	-0.047168	-0.520039	-0.035494	-5.460973	-62.822938	-1.434109
36164		0.852087	-0.047165	-0.520067	-0.035417	-5.470667	-62.826153	-1.417699
36165		0.852020	-0.047123	-0.520183	-0.035365	-5.469461	-62.841344	-1.410805
36166		0.851971	-0.047133	-0.520266	-0.035321	-5.478108	-62.852205	-1.399182
36167		0.851929	-0.047112	-0.520337	-0.035317	-5.474540	-62.861671	-1.400460
36168		0.851884	-0.047098	-0.520413	-0.035277	-5.477685	-62.871636	-1.392666
36169		0.851852	-0.047110	-0.520467	-0.035254	-5.483607	-62.878749	-1.385658
36170		0.851813	-0.047076	-0.520539	-0.035198	-5.484287	-62.887877	-1.377332
36171		0.851776	-0.047084	-0.520600	-0.035175	-5.489583	-62.895946	-1.370680
36172		0.851743	-0.047073	-0.520658	-0.035115	-5.495556	-62.903341	-1.358707
36173		0.851711	-0.047020	-0.520719	-0.035055	-5.492694	-62.911069	-1.352093
36174		0.851699	-0.046916	-0.520755	-0.034955	-5.483567	-62.915117	-1.344055
36175		0.851685	-0.046823	-0.520791	-0.034883	-5.473442	-62.919388	-1.340299
36176		0.851668	-0.046730	-0.520833	-0.034801	-5.464643	-62.924320	-1.334434
36177		0.851649	-0.046678	-0.520871	-0.034749	-5.460686	-62.929042	-1.329721
36178		0.851641	-0.046627	-0.520893	-0.034683	-5.458462	-62.931503	-1.322070
36179		0.851620	-0.046631	-0.520929	-0.034662	-5.462498	-62.936153	-1.316620
36180		0.851621	-0.046607	-0.520934	-0.034598	-5.465585	-62.936305	-1.306125
36181		0.851606	-0.046595	-0.520962	-0.034569	-5.467235	-62.939887	-1.301044
36182		0.851614	-0.046574	-0.520953	-0.034525	-5.468237	-62.938357	-1.294603
36183		0.851616	-0.046587	-0.520952	-0.034487	-5.476101	-62.938058	-1.284614
36184		0.851631	-0.046582	-0.520932	-0.034423	-5.483281	-62.934903	-1.271817
36185		0.851636	-0.046591	-0.520924	-0.034403	-5.487790	-62.933692	-1.266340
36186		0.851640	-0.046525	-0.520928	-0.034322	-5.484077	-62.933685	-1.257834
36187		0.851635	-0.046460	-0.520949	-0.034227	-5.482851	-62.935780	-1.245681
36188		0.851645	-0.046513	-0.520929	-0.034204	-5.497179	-62.933090	-1.233874
36189		0.851664	-0.046522	-0.520903	-0.034112	-5.510709	-62.928970	-1.213409
36190		0.851644	-0.046539	-0.520938	-0.034079	-5.519009	-62.933411	-1.203728
36191		0.851639	-0.046570	-0.520947	-0.034018	-5.533703	-62.934312	-1.186555
36192		0.851675	-0.046623	-0.520887	-0.033966	-5.551484	-62.925951	-1.168906
36193		0.851669	-0.046655	-0.520898	-0.033887	-5.568802	-62.927024	-1.147762
36194		0.851679	-0.046720	-0.520879	-0.033843	-5.588331	-62.924319	-1.129928
36195		0.851677	-0.046787	-0.520877	-0.033816	-5.606186	-62.923952	-1.115433
36196		0.851687	-0.046828	-0.520861	-0.033760	-5.622299	-62.921454	-1.098197
36197		0.851690	-0.046851	-0.520860	-0.033683	-5.637325	-62.920761	-1.078558
36198		0.851686	-0.046886	-0.520866	-0.033640	-5.650629	-62.921410	-1.064663
36199		0.851691	-0.046897	-0.520862	-0.033551	-5.664487	-62.920226	-1.044240
36200		0.851697	-0.046928	-0.520853	-0.033502	-5.677504	-62.918825	-1.029777
36201		0.851705	-0.046947	-0.520843	-0.033427	-5.691151	-62.917027	-1.011477
36202		0.851719	-0.046993	-0.520817	-0.033402	-5.704232	-62.913319	-1.000238
36203		0.851742	-0.047001	-0.520785	-0.033311	-5.717529	-62.908450	-0.980074
36204		0.851778	-0.047077	-0.520722	-0.033269	-5.738657	-62.899842	-0.961899
36205		0.851796	-0.047101	-0.520694	-0.033208	-5.751530	-62.895649	-0.945943
36206		0.851825	-0.047111	-0.520650	-0.033128	-5.763622	-62.889251	-0.928200
36207		0.851856	-0.047125	-0.520606	-0.033028	-5.779327	-62.882626	-0.905337
36208		0.851892	-0.047170	-0.520546	-0.032977	-5.794860	-62.874279	-0.889438
36209		0.851916	-0.047169	-0.520512	-0.032889	-5.805718	-62.869142	-0.871213
36210		0.851945	-0.047196	-0.520463	-0.032858	-5.815092	-62.862438	-0.861650
36211		0.851971	-0.047177	-0.520431	-0.032741	-5.825832	-62.857257	-0.839574
36212		0.852000	-0.047204	-0.520382	-0.032710	-5.835197	-62.850551	-0.830017
36213		0.852020	-0.047196	-0.520352	-0.032686	-5.836374	-62.846359	-0.826160
36214		0.852059	-0.047233	-0.520287	-0.032662	-5.846689	-62.837447	-0.817121
36215		0.852082	-0.047204	-0.520255	-0.032599	-5.848213	-62.832790	-0.807855
36216		0.852109	-0.047207	-0.520211	-0.032586	-5.850205	-62.826738	-0.805171
36217		0.852120	-0.047233	-0.520190	-0.032595	-5.854141	-62.824031	-0.804220
36218		0.852126	-0.047227	-0.520182	-0.032575	-5.855464	-62.822806	-0.800769
36219		0.852121	-0.047245	-0.520190	-0.032555	-5.862109	-62.823744	-0.793944
36220		0.852130	-0.047241	-0.520176	-0.032560	-5.860400	-62.821906	-0.795669
36221		0.852128	-0.047239	-0.520181	-0.032518	-5.865441	-62.822302	-0.786925
36222		0.852118	-0.047237	-0.520199	-0.032518	-5.865229	-62.824657	-0.787036
36223		0.852114	-0.047235	-0.520205	-0.032502	-5.866978	-62.825461	-0.783804
36224		0.852104	-0.047234	-0.520223	-0.032503	-5.866766	-62.827817	-0.783914
36225		0.852094	-0.047258	-0.520235	-0.032522	-5.869655	-62.829538	-0.784565
36226		0.852088	-0.047267	-0.520244	-0.032515	-5.872519	-62.830780	-0.781923
36227		0.852080	-0.047278	-0.520259	-0.032474	-5.880537	-62.832487	-0.771390
36228		0.852074	-0.047279	-0.520269	-0.032470	-5.881251	-62.833790	-0.770398
36229		0.852072	-0.047273	-0.520275	-0.032423	-5.886394	-62.834349	-0.760786
36230		0.852066	-0.047268	-0.520287	-0.032403	-5.888006	-62.835748	-0.757074
36231		0.852060	-0.047288	-0.520295	-0.032417	-5.890512	-62.836949	-0.757386
36232		0.852045	-0.047265	-0.520324	-0.032392	-5.889027	-62.840612	-0.754805
36233		0.852028	-0.047245	-0.520354	-0.032375	-5.887419	-62.844560	-0.753320
36234		0.852005	-0.047188	-0.520399	-0.032322	-5.882497	-62.850163	-0.748892
36235		0.851967	-0.047124	-0.520472	-0.032258	-5.878051	-62.859390	-0.742523
36236		0.851945	-0.047055	-0.520520	-0.032172	-5.874935	-62.865182	-0.732649
36237		0.851914	-0.046962	-0.520585	-0.032080	-5.867747	-62.873240	-0.724320
36238		0.851903	-0.046909	-0.520613	-0.031990	-5.868653	-62.876287	-0.711395
36239		0.851878	-0.046912	-0.520655	-0.031963	-5.873213	-62.881751	-0.704760
36240		0.851860	-0.046891	-0.520690	-0.031895	-5.877845	-62.886053	-0.692602
36241		0.851835	-0.046925	-0.520731	-0.031866	-5.889412	-62.891295	-0.681386
36242		0.851804	-0.046929	-0.520785	-0.031791	-5.900817	-62.898033	-0.663988
36243		0.851769	-0.046927	-0.520849	-0.031694	-5.913858	-62.905905	-0.642528
36244		0.851731	-0.046942	-0.520914	-0.031612	-5.928661	-62.914143	-0.622085
36245		0.851677	-0.046918	-0.521009	-0.031529	-5.935297	-62.926304	-0.606309
36246		0.851646	-0.046953	-0.521061	-0.031463	-5.952301	-62.932753	-0.586629
36247		0.851614	-0.046995	-0.521111	-0.031430	-5.966088	-62.939293	-0.573519
36248		0.851591	-0.047019	-0.521151	-0.031370	-5.979724	-62.944233	-0.556856
36249		0.851569	-0.047041	-0.521188	-0.031302	-5.993723	-62.948796	-0.538914
36250		0.851563	-0.047073	-0.521199	-0.031254	-6.007066	-62.949964	-0.524155
36251		0.851539	-0.047159	-0.521230	-0.031247	-6.026825	-62.954162	-0.511004
36252		0.851551	-0.047219	-0.521207	-0.031211	-6.044182	-62.950861	-0.495663
36253		0.851561	-0.047305	-0.521188	-0.031132	-6.072873	-62.947735	-0.467650
36254		0.851547	-0.047325	-0.521213	-0.031066	-6.086215	-62.950613	-0.450430
36255		0.851515	-0.047416	-0.521257	-0.031057	-6.107508	-62.956543	-0.435834
36256		0.851507	-0.047550	-0.521260	-0.031031	-6.139708	-62.956780	-0.412671
36257		0.851503	-0.047727	-0.521251	-0.031029	-6.178005	-62.955657	-0.389056
36258		0.851453	-0.047746	-0.521337	-0.030929	-6.196346	-62.966489	-0.363795
36259		0.851381	-0.047797	-0.521452	-0.030869	-6.216637	-62.981520	-0.342466
36260		0.851330	-0.047943	-0.521525	-0.030838	-6.253295	-62.991083	-0.315295
36261		0.851251	-0.048028	-0.521650	-0.030764	-6.282974	-63.007460	-0.286315
36262		0.851198	-0.048100	-0.521733	-0.030712	-6.306392	-63.018223	-0.264431
36263		0.851174	-0.048160	-0.521770	-0.030639	-6.329555	-63.022621	-0.240177
36264		0.851156	-0.048150	-0.521806	-0.030550	-6.339579	-63.026827	-0.221821
36265		0.851113	-0.048104	-0.521887	-0.030437	-6.345754	-63.036805	-0.202177
36266		0.851099	-0.048102	-0.521914	-0.030359	-6.355781	-63.039865	-0.185461
36267		0.851084	-0.048150	-0.521936	-0.030352	-6.367419	-63.042712	-0.177249
36268		0.851065	-0.048151	-0.521969	-0.030296	-6.375626	-63.046742	-0.164350
36269		0.851062	-0.048195	-0.521974	-0.030237	-6.392782	-63.047030	-0.145937
36270		0.851071	-0.048242	-0.521956	-0.030198	-6.408001	-63.044319	-0.131420
36271		0.851075	-0.048298	-0.521947	-0.030171	-6.423393	-63.042861	-0.118534
36272		0.851071	-0.048331	-0.521952	-0.030147	-6.433727	-63.043392	-0.108933
36273		0.851073	-0.048381	-0.521945	-0.030139	-6.445415	-63.042395	-0.100677
36274		0.851074	-0.048376	-0.521946	-0.030105	-6.448921	-63.042232	-0.093912
36275		0.851067	-0.048412	-0.521952	-0.030123	-6.454288	-63.043220	-0.093031
36276		0.851058	-0.048428	-0.521967	-0.030090	-6.462478	-63.044960	-0.083433
36277		0.851050	-0.048523	-0.521964	-0.030217	-6.466169	-63.045565	-0.098287
36278		0.851058	-0.048558	-0.521947	-0.030227	-6.472133	-63.043385	-0.096165
36279		0.851056	-0.048580	-0.521947	-0.030244	-6.474705	-63.043544	-0.096793
36280		0.851057	-0.048621	-0.521940	-0.030285	-6.477929	-63.042833	-0.100402
36281		0.851066	-0.048690	-0.521914	-0.030355	-6.483221	-63.039895	-0.106745
36282		0.851099	-0.048713	-0.521857	-0.030386	-6.483206	-63.032544	-0.111360
36283		0.851129	-0.048773	-0.521797	-0.030465	-6.485168	-63.025106	-0.121128
36284		0.851162	-0.048768	-0.521745	-0.030469	-6.482674	-63.018059	-0.123588
36285		0.851166	-0.048661	-0.521750	-0.030420	-6.466108	-63.018356	-0.127130
36286		0.851206	-0.048687	-0.521680	-0.030471	-6.463916	-63.009364	-0.135886
36287		0.851235	-0.048736	-0.521626	-0.030514	-6.467986	-63.002438	-0.139599
36288		0.851272	-0.048729	-0.521564	-0.030532	-6.463326	-62.994320	-0.145368
36289		0.851264	-0.048707	-0.521579	-0.030541	-6.457755	-62.996340	-0.149777
36290		0.851304	-0.048708	-0.521514	-0.030546	-6.456172	-62.987661	-0.151971
36291		0.851321	-0.048701	-0.521486	-0.030548	-6.454117	-62.984004	-0.153686
36292		0.851324	-0.048689	-0.521482	-0.030541	-6.452373	-62.983332	-0.153815
36293		0.851342	-0.048655	-0.521459	-0.030507	-6.449150	-62.979966	-0.151389
36294		0.851372	-0.048637	-0.521411	-0.030507	-6.444523	-62.973557	-0.154662
36295		0.851400	-0.048643	-0.521364	-0.030520	-6.443576	-62.967399	-0.157259
36296		0.851428	-0.048610	-0.521320	-0.030536	-6.433727	-62.961619	-0.165753
36297		0.851446	-0.048564	-0.521295	-0.030536	-6.423468	-62.958168	-0.172223
36298		0.851465	-0.048527	-0.521266	-0.030560	-6.411819	-62.954504	-0.182868
36299		0.851483	-0.048484	-0.521241	-0.030558	-6.402622	-62.951176	-0.188327
36300		0.851501	-0.048467	-0.521213	-0.030559	-6.398368	-62.947382	-0.191259
36301		0.851507	-0.048454	-0.521204	-0.030557	-6.395676	-62.946194	-0.192753
36302		0.851535	-0.048463	-0.521158	-0.030560	-6.396630	-62.940059	-0.192941
36303		0.851548	-0.048466	-0.521135	-0.030579	-6.394347	-62.937048	-0.197077
36304		0.851564	-0.048482	-0.521107	-0.030599	-6.394739	-62.933451	-0.199674
36305		0.851576	-0.048467	-0.521089	-0.030587	-6.392839	-62.930955	-0.199409
36306		0.851582	-0.048464	-0.521078	-0.030602	-6.390183	-62.929629	-0.203088
36307		0.851592	-0.048469	-0.521061	-0.030609	-6.389913	-62.927297	-0.204358
36308		0.851592	-0.048460	-0.521062	-0.030623	-6.386358	-62.927601	-0.208290
36309		0.851591	-0.048476	-0.521060	-0.030651	-6.386077	-62.927543	-0.212353
36310		0.851599	-0.048494	-0.521044	-0.030667	-6.387728	-62.925507	-0.213545
36311		0.851594	-0.048453	-0.521058	-0.030643	-6.382148	-62.927131	-0.213609
36312		0.851586	-0.048464	-0.521066	-0.030700	-6.377105	-62.928750	-0.224336
36313		0.851579	-0.048500	-0.521069	-0.030787	-6.373561	-62.929774	-0.238167
36314		0.851580	-0.048521	-0.521061	-0.030852	-6.369415	-62.929191	-0.249465
36315		0.851567	-0.048551	-0.521075	-0.030941	-6.364410	-62.931777	-0.264322
36316		0.851568	-0.048560	-0.521070	-0.030973	-6.362093	-62.931358	-0.270155
36317		0.851551	-0.048511	-0.521103	-0.030972	-6.352216	-62.935749	-0.275729
36318		0.851538	-0.048486	-0.521125	-0.030990	-6.344695	-62.938808	-0.282656
36319		0.851521	-0.048507	-0.521149	-0.031046	-6.342241	-62.942363	-0.291495
36320		0.851508	-0.048476	-0.521172	-0.031049	-6.335634	-62.945504	-0.295690
36321		0.851496	-0.048403	-0.521201	-0.030984	-6.328850	-62.948964	-0.290967
36322		0.851486	-0.048371	-0.521222	-0.030976	-6.323153	-62.951617	-0.293255
36323		0.851461	-0.048328	-0.521269	-0.030958	-6.316953	-62.957747	-0.294303
36324		0.851453	-0.048294	-0.521286	-0.030940	-6.312167	-62.959911	-0.294682
36325		0.851434	-0.048293	-0.521315	-0.030967	-6.308943	-62.964046	-0.300003
36326		0.851421	-0.048228	-0.521344	-0.030926	-6.300771	-62.967568	-0.299312
36327		0.851416	-0.048194	-0.521358	-0.030895	-6.297644	-62.969268	-0.296992
36328		0.851400	-0.048163	-0.521387	-0.030873	-6.294116	-62.972992	-0.295970
36329		0.851390	-0.048140	-0.521408	-0.030836	-6.294217	-62.975472	-0.290885
36330		0.851377	-0.048115	-0.521433	-0.030801	-6.293762	-62.978639	-0.286294
36331		0.851364	-0.048063	-0.521464	-0.030732	-6.292180	-62.982281	-0.277745
36332		0.851351	-0.048038	-0.521490	-0.030697	-6.291728	-62.985447	-0.273151
36333		0.851338	-0.047977	-0.521523	-0.030601	-6.291527	-62.989126	-0.260171
36334		0.851343	-0.047983	-0.521516	-0.030560	-6.298106	-62.987839	-0.250659
36335		0.851336	-0.047991	-0.521529	-0.030535	-6.303270	-62.989411	-0.244074
36336		0.851330	-0.047980	-0.521542	-0.030499	-6.305884	-62.990879	-0.237559
36337		0.851327	-0.048016	-0.521541	-0.030515	-6.311656	-62.990962	-0.236139
36338		0.851338	-0.048013	-0.521525	-0.030491	-6.313906	-62.988670	-0.231602
36339		0.851339	-0.048000	-0.521526	-0.030464	-6.314500	-62.988501	-0.227661
36340		0.851344	-0.047970	-0.521522	-0.030462	-6.308455	-62.987962	-0.231093
36341		0.851349	-0.047997	-0.521510	-0.030475	-6.312396	-62.986499	-0.230455
36342		0.851362	-0.048012	-0.521488	-0.030470	-6.315876	-62.983489	-0.227826
36343		0.851368	-0.047995	-0.521481	-0.030435	-6.316710	-62.982262	-0.222777
36344		0.851381	-0.048001	-0.521459	-0.030433	-6.318032	-62.979321	-0.221807
36345		0.851379	-0.048002	-0.521464	-0.030415	-6.320591	-62.979915	-0.217823
36346		0.851375	-0.048015	-0.521469	-0.030415	-6.323516	-62.980584	-0.215952
36347		0.851366	-0.048006	-0.521487	-0.030381	-6.326203	-62.982644	-0.209639
36348		0.851355	-0.048044	-0.521501	-0.030388	-6.333782	-62.984656	-0.205782
36349		0.851346	-0.048077	-0.521509	-0.030431	-6.335300	-62.986050	-0.210610
36350		0.851359	-0.048109	-0.521486	-0.030421	-6.343094	-62.982903	-0.204665
36351		0.851354	-0.048131	-0.521491	-0.030452	-6.344003	-62.983734	-0.208179
36352		0.851358	-0.048119	-0.521486	-0.030444	-6.342275	-62.983061	-0.208292
36353		0.851372	-0.048061	-0.521472	-0.030385	-6.337434	-62.980692	-0.203360
36354		0.851378	-0.048044	-0.521463	-0.030386	-6.333542	-62.979517	-0.205959
36355		0.851389	-0.048068	-0.521442	-0.030410	-6.335214	-62.976898	-0.208382
36356		0.851404	-0.048078	-0.521416	-0.030414	-6.336527	-62.973388	-0.208241
36357		0.851427	-0.048051	-0.521384	-0.030381	-6.334613	-62.968831	-0.205152
36358		0.851447	-0.048018	-0.521354	-0.030358	-6.330047	-62.964694	-0.205082
36359		0.851468	-0.048044	-0.521318	-0.030365	-6.334094	-62.959932	-0.203896
36360		0.851506	-0.048121	-0.521246	-0.030401	-6.344875	-62.950533	-0.202676
36361		0.851544	-0.048187	-0.521174	-0.030458	-6.350653	-62.941329	-0.207245
36362		0.851533	-0.048071	-0.521209	-0.030379	-6.336655	-62.945359	-0.204933
36363		0.851531	-0.048037	-0.521218	-0.030297	-6.340241	-62.946036	-0.191738
36364		0.851520	-0.048104	-0.521229	-0.030331	-6.350286	-62.947756	-0.190047
36365		0.851497	-0.048142	-0.521265	-0.030311	-6.361544	-62.952386	-0.180218
36366		0.851488	-0.048158	-0.521276	-0.030331	-6.362646	-62.954038	-0.182159
36367		0.851494	-0.048136	-0.521270	-0.030293	-6.362814	-62.953015	-0.176979
36368		0.851484	-0.048081	-0.521293	-0.030274	-6.353751	-62.955886	-0.179816
36369		0.851454	-0.048041	-0.521343	-0.030322	-6.339603	-62.962959	-0.194503
36370		0.851434	-0.048010	-0.521377	-0.030339	-6.331199	-62.967653	-0.201665
36371		0.851417	-0.047963	-0.521409	-0.030344	-6.320708	-62.971975	-0.208607
36372		0.851393	-0.047893	-0.521455	-0.030341	-6.306769	-62.978088	-0.216349
36373		0.851357	-0.047807	-0.521522	-0.030335	-6.289860	-62.986985	-0.225461
36374		0.851340	-0.047757	-0.521554	-0.030347	-6.278047	-62.991319	-0.234040
36375		0.851317	-0.047753	-0.521589	-0.030395	-6.271224	-62.996458	-0.244476
36376		0.851297	-0.047699	-0.521626	-0.030401	-6.259415	-63.001359	-0.252231
36377		0.851303	-0.047691	-0.521614	-0.030466	-6.248956	-63.000278	-0.267404
36378		0.851321	-0.047648	-0.521587	-0.030474	-6.238250	-62.996683	-0.275294
36379		0.851348	-0.047622	-0.521546	-0.030484	-6.230778	-62.991188	-0.281465
36380		0.851374	-0.047596	-0.521503	-0.030526	-6.219134	-62.985804	-0.294572
36381		0.851419	-0.047613	-0.521425	-0.030579	-6.214799	-62.975718	-0.304911
36382		0.851447	-0.047583	-0.521378	-0.030630	-6.201007	-62.969827	-0.320490
36383		0.851481	-0.047544	-0.521326	-0.030637	-6.191091	-62.962777	-0.327827
36384		0.851512	-0.047515	-0.521277	-0.030658	-6.181303	-62.956407	-0.337087
36385		0.851534	-0.047524	-0.521236	-0.030735	-6.172737	-62.951413	-0.352826
36386		0.851571	-0.047509	-0.521175	-0.030755	-6.166019	-62.943348	-0.360164
36387		0.851608	-0.047471	-0.521119	-0.030737	-6.159500	-62.935747	-0.362021
36388		0.851631	-0.047347	-0.521095	-0.030723	-6.134370	-62.932333	-0.375716
36389		0.851649	-0.047304	-0.521070	-0.030703	-6.127287	-62.928780	-0.377526
36390		0.851689	-0.047330	-0.521000	-0.030754	-6.125204	-62.919786	-0.386181
36391		0.851724	-0.047308	-0.520943	-0.030757	-6.119406	-62.912259	-0.390442
36392		0.851721	-0.047270	-0.520951	-0.030771	-6.109424	-62.913321	-0.398486
36393		0.851737	-0.047239	-0.520928	-0.030750	-6.105172	-62.910163	-0.398430
36394		0.851763	-0.047227	-0.520888	-0.030753	-6.101887	-62.904729	-0.401042
36395		0.851741	-0.047232	-0.520922	-0.030777	-6.100152	-62.909446	-0.405145
36396		0.851739	-0.047257	-0.520922	-0.030780	-6.105223	-62.909488	-0.402448
36397		0.851700	-0.047229	-0.520988	-0.030797	-6.097712	-62.918451	-0.408881
36398		0.851665	-0.047217	-0.521047	-0.030766	-6.100083	-62.926224	-0.402840
36399		0.851615	-0.047229	-0.521127	-0.030791	-6.100373	-62.937139	-0.405456
36400		0.851573	-0.047234	-0.521197	-0.030769	-6.105230	-62.946329	-0.399098
36401		0.851527	-0.047252	-0.521270	-0.030761	-6.111087	-62.956029	-0.393857
36402		0.851504	-0.047271	-0.521307	-0.030738	-6.118677	-62.960904	-0.385885
36403		0.851499	-0.047280	-0.521318	-0.030678	-6.128613	-62.961905	-0.371741
36404		0.851495	-0.047305	-0.521324	-0.030657	-6.136773	-62.962531	-0.363818
36405		0.851519	-0.047389	-0.521278	-0.030646	-6.155809	-62.956352	-0.351062
36406		0.851541	-0.047442	-0.521239	-0.030623	-6.169738	-62.950969	-0.339632
36407		0.851565	-0.047535	-0.521190	-0.030643	-6.186347	-62.944646	-0.332578
36408		0.851584	-0.047575	-0.521156	-0.030616	-6.198123	-62.939895	-0.321984
36409		0.851596	-0.047614	-0.521133	-0.030608	-6.207117	-62.936738	-0.315566
36410		0.851602	-0.047625	-0.521124	-0.030583	-6.212783	-62.935373	-0.308790
36411		0.851609	-0.047650	-0.521110	-0.030594	-6.216638	-62.933555	-0.307944
36412		0.851620	-0.047653	-0.521093	-0.030585	-6.217986	-62.931185	-0.306133
36413		0.851634	-0.047669	-0.521069	-0.030565	-6.223951	-62.927921	-0.299859
36414		0.851654	-0.047664	-0.521036	-0.030569	-6.221887	-62.923487	-0.301930
36415		0.851681	-0.047671	-0.520990	-0.030598	-6.218775	-62.917528	-0.308088
36416		0.851709	-0.047663	-0.520945	-0.030607	-6.215463	-62.911532	-0.311557
36417		0.851733	-0.047675	-0.520901	-0.030665	-6.209783	-62.905993	-0.323146
36418		0.851749	-0.047656	-0.520874	-0.030695	-6.201602	-62.902672	-0.332330
36419		0.851758	-0.047653	-0.520858	-0.030719	-6.197329	-62.900712	-0.338367
36420		0.851777	-0.047630	-0.520828	-0.030757	-6.186997	-62.896887	-0.350025
36421		0.851776	-0.047603	-0.520832	-0.030759	-6.181260	-62.897460	-0.353676
36422		0.851794	-0.047609	-0.520802	-0.030771	-6.180447	-62.893449	-0.355993
36423		0.851805	-0.047555	-0.520788	-0.030767	-6.169108	-62.891529	-0.362582
36424		0.851826	-0.047547	-0.520753	-0.030790	-6.163995	-62.887079	-0.369022
36425		0.851842	-0.047510	-0.520729	-0.030799	-6.154458	-62.883923	-0.376205
36426		0.851854	-0.047489	-0.520711	-0.030833	-6.145387	-62.881656	-0.386452
36427		0.851857	-0.047440	-0.520708	-0.030861	-6.131188	-62.881441	-0.398865
36428		0.851864	-0.047423	-0.520695	-0.030915	-6.120295	-62.880152	-0.412925
36429		0.851882	-0.047432	-0.520661	-0.030972	-6.114381	-62.875987	-0.424317
36430		0.851887	-0.047386	-0.520654	-0.031028	-6.097055	-62.875456	-0.442494
36431		0.851894	-0.047372	-0.520641	-0.031076	-6.087494	-62.874052	-0.454909
36432		0.851903	-0.047344	-0.520626	-0.031123	-6.075376	-62.872331	-0.468701
36433		0.851921	-0.047335	-0.520593	-0.031195	-6.063513	-62.868358	-0.485819
36434		0.851942	-0.047290	-0.520559	-0.031247	-6.046781	-62.864136	-0.503203
36435		0.851979	-0.047240	-0.520504	-0.031257	-6.033794	-62.856788	-0.512942
36436		0.852009	-0.047205	-0.520453	-0.031316	-6.017986	-62.850364	-0.530873
36437		0.852048	-0.047148	-0.520394	-0.031319	-6.004631	-62.842460	-0.539815
36438		0.852084	-0.047115	-0.520335	-0.031374	-5.989754	-62.834971	-0.556641
36439		0.852110	-0.047137	-0.520286	-0.031450	-5.983869	-62.828899	-0.570750
36440		0.852135	-0.047142	-0.520241	-0.031501	-5.977901	-62.823215	-0.581510
36441		0.852154	-0.047138	-0.520209	-0.031534	-5.972372	-62.819138	-0.589530
36442		0.852175	-0.047133	-0.520172	-0.031592	-5.963356	-62.814572	-0.603013
36443		0.852202	-0.047126	-0.520126	-0.031625	-5.956910	-62.808615	-0.611664
36444		0.852225	-0.047128	-0.520085	-0.031669	-5.950957	-62.803496	-0.621588
36445		0.852229	-0.047147	-0.520071	-0.031757	-5.943612	-62.802257	-0.637954
36446		0.852257	-0.047151	-0.520023	-0.031798	-5.938579	-62.796079	-0.646784
36447		0.852265	-0.047160	-0.520002	-0.031898	-5.927112	-62.793990	-0.667313
36448		0.852279	-0.047171	-0.519975	-0.031965	-5.920578	-62.790840	-0.680483
36449		0.852288	-0.047171	-0.519956	-0.032020	-5.913115	-62.788614	-0.692485
36450		0.852290	-0.047183	-0.519948	-0.032087	-5.906896	-62.788087	-0.705365
36451		0.852280	-0.047206	-0.519958	-0.032158	-5.902657	-62.789841	-0.717468
36452		0.852284	-0.047200	-0.519948	-0.032221	-5.893069	-62.788945	-0.731724
36453		0.852279	-0.047209	-0.519953	-0.032256	-5.890521	-62.789857	-0.738020
36454		0.852295	-0.047236	-0.519922	-0.032308	-5.889191	-62.786096	-0.745988
36455		0.852312	-0.047245	-0.519890	-0.032357	-5.884401	-62.782191	-0.755605
36456		0.852320	-0.047232	-0.519877	-0.032364	-5.880596	-62.780427	-0.758950
36457		0.852335	-0.047195	-0.519858	-0.032335	-5.876177	-62.777742	-0.757951
36458		0.852355	-0.047190	-0.519825	-0.032339	-5.874208	-62.773292	-0.759933
36459		0.852370	-0.047180	-0.519802	-0.032327	-5.873299	-62.770092	-0.758994
36460		0.852378	-0.047238	-0.519783	-0.032349	-5.882658	-62.767746	-0.756299
36461		0.852394	-0.047317	-0.519745	-0.032424	-5.889426	-62.763227	-0.762525
36462		0.852381	-0.047298	-0.519769	-0.032405	-5.888048	-62.766313	-0.760674
36463		0.852390	-0.047370	-0.519747	-0.032405	-5.903378	-62.763482	-0.751435
36464		0.852403	-0.047408	-0.519723	-0.032411	-5.910278	-62.760280	-0.748211
36465		0.852350	-0.047390	-0.519814	-0.032367	-5.913142	-62.772139	-0.740007
36466		0.852303	-0.047410	-0.519890	-0.032345	-5.921251	-62.782293	-0.731552
36467		0.852253	-0.047486	-0.519967	-0.032329	-5.940677	-62.792459	-0.717026
36468		0.852186	-0.047529	-0.520071	-0.032332	-5.950665	-62.806578	-0.710700
36469		0.852126	-0.047586	-0.520164	-0.032345	-5.962225	-62.819065	-0.704841
36470		0.852067	-0.047604	-0.520259	-0.032342	-5.967631	-62.831816	-0.700434
36471		0.852010	-0.047589	-0.520357	-0.032293	-5.971911	-62.844707	-0.690603
36472		0.851923	-0.047546	-0.520506	-0.032258	-5.969061	-62.864311	-0.686727
36473		0.851840	-0.047491	-0.520651	-0.032182	-5.968964	-62.883219	-0.675645
36474		0.851784	-0.047457	-0.520749	-0.032130	-5.969470	-62.895963	-0.667698
36475		0.851721	-0.047425	-0.520858	-0.032069	-5.971883	-62.910173	-0.657297
36476		0.851665	-0.047415	-0.520955	-0.032009	-5.978854	-62.922730	-0.644383
36477		0.851597	-0.047442	-0.521067	-0.031962	-5.992258	-62.937448	-0.629107
36478		0.851523	-0.047454	-0.521189	-0.031917	-6.002049	-62.953475	-0.616387
36479		0.851458	-0.047492	-0.521293	-0.031885	-6.015685	-62.967351	-0.602996
36480		0.851392	-0.047504	-0.521404	-0.031826	-6.027344	-62.981826	-0.587242
36481		0.851328	-0.047506	-0.521511	-0.031783	-6.034841	-62.995797	-0.576080
36482		0.851257	-0.047499	-0.521630	-0.031733	-6.041311	-63.011447	-0.564695
36483		0.851186	-0.047554	-0.521739	-0.031764	-6.050331	-63.026305	-0.562612
36484		0.851113	-0.047571	-0.521859	-0.031736	-6.059297	-63.042235	-0.552545
36485		0.851047	-0.047619	-0.521961	-0.031736	-6.070964	-63.056060	-0.544698
36486		0.850974	-0.047642	-0.522080	-0.031724	-6.079027	-63.071907	-0.537351
36487		0.850918	-0.047702	-0.522166	-0.031719	-6.093777	-63.083499	-0.527016
36488		0.850862	-0.047776	-0.522249	-0.031731	-6.109207	-63.094688	-0.518550
36489		0.850814	-0.047845	-0.522323	-0.031717	-6.126862	-63.104592	-0.505388
36490		0.850766	-0.047888	-0.522397	-0.031706	-6.138598	-63.114498	-0.496136
36491		0.850689	-0.047785	-0.522537	-0.031620	-6.129621	-63.132616	-0.489098
36492		0.850620	-0.047839	-0.522644	-0.031631	-6.141124	-63.147111	-0.482767
36493		0.850578	-0.047946	-0.522702	-0.031638	-6.164217	-63.155050	-0.469171
36494		0.850523	-0.047989	-0.522787	-0.031641	-6.174153	-63.166497	-0.462889
36495		0.850446	-0.048029	-0.522909	-0.031634	-6.185390	-63.182869	-0.454221
36496		0.850399	-0.048055	-0.522984	-0.031628	-6.192849	-63.192894	-0.448251
36497		0.850321	-0.048088	-0.523108	-0.031632	-6.200915	-63.209578	-0.443036
36498		0.850247	-0.048133	-0.523224	-0.031631	-6.212519	-63.225193	-0.434966
36499		0.850180	-0.048138	-0.523332	-0.031607	-6.218287	-63.239579	-0.427361
36500		0.850119	-0.048172	-0.523428	-0.031627	-6.224266	-63.252628	-0.425708
36501		0.850055	-0.048206	-0.523528	-0.031633	-6.231970	-63.266056	-0.421142
36502		0.849994	-0.048234	-0.523625	-0.031637	-6.238908	-63.279178	-0.416716
36503		0.849936	-0.048249	-0.523718	-0.031645	-6.242435	-63.291694	-0.414897
36504		0.849881	-0.048263	-0.523802	-0.031674	-6.242808	-63.303312	-0.418003
36505		0.849831	-0.048308	-0.523876	-0.031746	-6.243977	-63.313784	-0.426466
36506		0.849781	-0.048325	-0.523953	-0.031771	-6.245267	-63.324343	-0.428482
36507		0.849736	-0.048321	-0.524026	-0.031799	-6.241623	-63.334287	-0.433939
36508		0.849705	-0.048368	-0.524070	-0.031818	-6.249979	-63.340413	-0.431004
36509		0.849656	-0.048398	-0.524143	-0.031888	-6.248144	-63.350771	-0.441114
36510		0.849620	-0.048443	-0.524195	-0.031911	-6.255591	-63.357953	-0.439263
36511		0.849575	-0.048473	-0.524263	-0.031960	-6.256495	-63.367436	-0.444719
36512		0.849532	-0.048515	-0.524325	-0.032016	-6.258966	-63.376154	-0.450330
36513		0.849488	-0.048512	-0.524396	-0.032021	-6.258636	-63.385834	-0.450769
36514		0.849434	-0.048546	-0.524478	-0.032080	-6.259293	-63.397227	-0.457722
36515		0.849381	-0.048545	-0.524561	-0.032113	-6.255769	-63.408653	-0.463685
36516		0.849320	-0.048557	-0.524655	-0.032175	-6.251159	-63.421795	-0.474265
36517		0.849263	-0.048577	-0.524745	-0.032173	-6.257141	-63.433912	-0.469588
36518		0.849195	-0.048568	-0.524853	-0.032220	-6.250400	-63.448812	-0.479341
36519		0.849138	-0.048580	-0.524943	-0.032238	-6.251834	-63.461062	-0.480243
36520		0.849086	-0.048604	-0.525022	-0.032289	-6.251236	-63.472023	-0.486959
36521		0.849012	-0.048612	-0.525138	-0.032335	-6.248281	-63.487915	-0.494117
36522		0.848946	-0.048624	-0.525240	-0.032383	-6.245882	-63.502113	-0.501345
36523		0.848867	-0.048637	-0.525366	-0.032405	-6.247516	-63.519121	-0.502463
36524		0.848779	-0.048649	-0.525504	-0.032443	-6.246801	-63.538045	-0.507068
36525		0.848668	-0.048626	-0.525686	-0.032448	-6.243470	-63.562585	-0.508462
36526		0.848558	-0.048634	-0.525859	-0.032494	-6.241289	-63.586218	-0.514914
36527		0.848421	-0.048658	-0.526075	-0.032541	-6.243247	-63.615710	-0.518456
36528		0.848288	-0.048642	-0.526292	-0.032542	-6.242538	-63.644839	-0.517559
36529		0.848144	-0.048597	-0.526528	-0.032539	-6.236128	-63.676590	-0.519515
36530		0.847994	-0.048566	-0.526773	-0.032531	-6.233665	-63.709503	-0.518272
36531		0.847831	-0.048502	-0.527044	-0.032480	-6.230120	-63.745611	-0.511702
36532		0.847659	-0.048467	-0.527323	-0.032481	-6.226218	-63.783213	-0.512289
36533		0.847464	-0.048410	-0.527643	-0.032464	-6.220276	-63.826152	-0.511401
36534		0.847237	-0.048370	-0.528010	-0.032482	-6.213851	-63.875742	-0.515322
36535		0.846933	-0.048248	-0.528511	-0.032456	-6.197128	-63.943114	-0.518782
36536		0.846581	-0.048119	-0.529085	-0.032454	-6.176688	-64.020496	-0.527333
36537		0.846187	-0.047889	-0.529742	-0.032375	-6.145219	-64.108408	-0.531827
36538		0.845751	-0.047777	-0.530446	-0.032406	-6.125521	-64.203697	-0.543558
36539		0.845313	-0.047564	-0.531165	-0.032353	-6.094810	-64.300340	-0.550747
36540		0.844856	-0.047368	-0.531914	-0.032292	-6.069580	-64.400996	-0.553325
36541		0.844445	-0.047147	-0.532589	-0.032234	-6.036962	-64.491796	-0.561518
36542		0.844070	-0.046890	-0.533207	-0.032200	-5.992051	-64.575078	-0.581122
36543		0.843722	-0.046505	-0.533802	-0.032038	-5.935970	-64.654145	-0.590764
36544		0.843394	-0.046314	-0.534336	-0.032037	-5.899715	-64.726367	-0.610028
36545		0.843114	-0.046185	-0.534789	-0.032051	-5.874475	-64.787761	-0.624936
36546		0.842841	-0.046013	-0.535230	-0.032099	-5.834146	-64.847729	-0.654211
36547		0.842532	-0.045952	-0.535713	-0.032260	-5.802918	-64.914321	-0.692902
36548		0.842273	-0.045856	-0.536118	-0.032417	-5.763566	-64.970296	-0.736641
36549		0.842052	-0.045738	-0.536468	-0.032551	-5.721478	-65.018533	-0.779427
36550		0.841837	-0.045660	-0.536798	-0.032776	-5.674934	-65.064834	-0.837620
36551		0.841669	-0.045696	-0.537039	-0.033076	-5.642325	-65.099612	-0.897740
36552		0.841611	-0.045698	-0.537110	-0.033398	-5.596586	-65.111432	-0.970200
36553		0.841625	-0.045444	-0.537105	-0.033481	-5.526058	-65.110917	-1.026617
36554		0.841602	-0.045305	-0.537139	-0.033677	-5.465835	-65.116753	-1.091402
36555		0.841533	-0.045371	-0.537228	-0.033918	-5.446662	-65.130435	-1.135904
36556		0.841456	-0.045456	-0.537318	-0.034272	-5.415413	-65.145089	-1.203490
36557		0.841455	-0.045514	-0.537290	-0.034668	-5.370472	-65.143817	-1.286193
36558		0.841511	-0.045357	-0.537193	-0.035005	-5.284180	-65.132645	-1.387631
36559		0.841589	-0.045301	-0.537052	-0.035359	-5.218266	-65.115553	-1.478481
36560		0.841711	-0.045134	-0.536854	-0.035694	-5.129207	-65.090344	-1.581818
36561		0.841709	-0.044887	-0.536859	-0.035972	-5.031767	-65.092280	-1.681846
36562		0.841671	-0.044637	-0.536924	-0.036205	-4.940932	-65.101927	-1.771072
36563		0.841638	-0.044359	-0.536987	-0.036366	-4.854148	-65.110915	-1.848063
36564		0.841585	-0.044126	-0.537080	-0.036515	-4.779382	-65.123774	-1.915686
36565		0.841579	-0.044013	-0.537087	-0.036672	-4.730472	-65.125358	-1.968190
36566		0.841568	-0.044119	-0.537079	-0.036925	-4.717674	-65.126013	-2.010879
36567		0.841599	-0.044397	-0.536986	-0.037242	-4.734695	-65.115757	-2.043407
36568		0.841712	-0.044757	-0.536749	-0.037669	-4.753401	-65.086828	-2.090544
36569		0.841772	-0.044770	-0.536645	-0.037790	-4.738194	-65.073489	-2.117095
36570		0.841685	-0.044841	-0.536767	-0.037907	-4.738112	-65.090942	-2.132520
36571		0.841442	-0.045323	-0.537085	-0.038224	-4.804425	-65.137124	-2.131980
36572		0.841081	-0.045971	-0.537574	-0.038521	-4.913157	-65.206876	-2.100920
36573		0.840767	-0.046765	-0.537976	-0.038798	-5.058292	-65.265225	-2.043942
36574		0.840691	-0.047464	-0.538024	-0.038933	-5.200312	-65.274141	-1.971247
36575		0.840991	-0.047725	-0.537538	-0.038849	-5.269072	-65.208212	-1.918073
36576		0.841373	-0.047883	-0.536943	-0.038617	-5.334454	-65.126171	-1.847710
36577		0.841607	-0.048447	-0.536524	-0.038645	-5.456328	-65.070638	-1.775755
36578		0.841747	-0.048856	-0.536271	-0.038591	-5.555648	-65.036832	-1.706398
36579		0.842005	-0.048945	-0.535873	-0.038361	-5.605648	-64.981468	-1.645477
36580		0.842207	-0.049530	-0.535502	-0.038356	-5.736460	-64.932175	-1.563599
36581		0.842422	-0.050016	-0.535136	-0.038123	-5.877227	-64.881748	-1.444615
36582		0.842781	-0.050021	-0.534608	-0.037582	-5.950643	-64.806393	-1.327676
36583		0.843125	-0.050089	-0.534093	-0.037101	-6.029148	-64.733303	-1.215918
36584		0.843298	-0.049998	-0.533863	-0.036579	-6.080370	-64.698293	-1.114156
36585		0.843337	-0.049850	-0.533855	-0.036007	-6.128503	-64.692915	-1.006125
36586		0.843307	-0.049873	-0.533936	-0.035470	-6.211461	-64.699925	-0.880357
36587		0.843362	-0.049351	-0.533938	-0.034858	-6.180364	-64.695166	-0.817078
36588		0.843501	-0.049138	-0.533770	-0.034355	-6.201796	-64.668580	-0.736502
36589		0.843618	-0.049142	-0.533612	-0.033926	-6.261768	-64.644049	-0.641477
36590		0.843620	-0.049040	-0.533648	-0.033475	-6.303091	-64.645424	-0.554137
36591		0.843570	-0.048736	-0.533785	-0.032972	-6.308066	-64.660122	-0.481823
36592		0.843583	-0.048110	-0.533859	-0.032382	-6.251403	-64.665349	-0.437243
36593		0.843721	-0.047367	-0.533743	-0.031767	-6.168870	-64.644757	-0.407066
36594		0.843985	-0.046724	-0.533412	-0.031257	-6.091415	-64.595934	-0.389292
36595		0.844238	-0.046295	-0.533071	-0.030889	-6.042031	-64.546982	-0.372916
36596		0.844354	-0.046012	-0.532925	-0.030656	-6.009037	-64.525422	-0.363331
36597		0.844501	-0.045670	-0.532734	-0.030424	-5.962028	-64.497812	-0.362877
36598		0.844615	-0.045550	-0.532575	-0.030233	-5.960013	-64.474896	-0.339289
36599		0.844631	-0.045391	-0.532575	-0.030024	-5.953676	-64.473383	-0.315043
36600		0.844665	-0.045062	-0.532568	-0.029690	-5.926533	-64.469936	-0.287064
36601		0.844728	-0.044839	-0.532502	-0.029441	-5.910525	-64.459129	-0.263849
36602		0.844910	-0.044620	-0.532239	-0.029280	-5.880321	-64.422352	-0.262963
36603		0.845158	-0.044395	-0.531867	-0.029223	-5.832639	-64.371643	-0.287784
36604		0.845447	-0.044244	-0.531417	-0.029282	-5.784485	-64.311096	-0.329010
36605		0.845628	-0.044167	-0.531130	-0.029386	-5.748966	-64.273053	-0.367224
36606		0.845495	-0.044235	-0.531342	-0.029298	-5.779420	-64.301020	-0.334791
36607		0.845466	-0.044598	-0.531341	-0.029599	-5.818485	-64.303091	-0.350914
36608		0.845737	-0.044664	-0.530901	-0.029640	-5.821625	-64.244026	-0.357400
36609		0.846011	-0.044605	-0.530471	-0.029601	-5.808101	-64.185629	-0.363499
36610		0.846363	-0.044515	-0.529925	-0.029458	-5.800903	-64.110793	-0.352323
36611		0.846640	-0.044523	-0.529488	-0.029346	-5.812337	-64.051012	-0.332902
36612		0.847014	-0.044257	-0.528924	-0.029134	-5.775128	-63.973362	-0.331292
36613		0.847362	-0.044226	-0.528371	-0.029080	-5.768500	-63.898356	-0.331717
36614		0.847680	-0.044146	-0.527870	-0.029031	-5.751070	-63.830428	-0.339306
36615		0.848081	-0.043882	-0.527259	-0.028818	-5.714108	-63.746601	-0.337557
36616		0.848483	-0.043824	-0.526621	-0.028761	-5.700970	-63.660154	-0.342159
36617		0.848968	-0.043865	-0.525836	-0.028733	-5.703799	-63.554315	-0.341717
36618		0.849558	-0.043653	-0.524909	-0.028561	-5.669148	-63.428240	-0.345865
36619		0.850111	-0.043457	-0.524037	-0.028425	-5.633984	-63.310008	-0.354860
36620		0.850623	-0.043096	-0.523245	-0.028224	-5.572694	-63.202115	-0.370574
36621		0.851031	-0.042861	-0.522604	-0.028177	-5.520499	-63.115478	-0.400339
36622		0.851346	-0.042547	-0.522124	-0.028041	-5.464878	-63.049978	-0.419256
36623		0.851621	-0.042278	-0.521703	-0.027930	-5.416855	-62.992684	-0.436281
36624		0.851881	-0.042083	-0.521300	-0.027818	-5.384902	-62.937772	-0.443207
36625		0.852143	-0.042042	-0.520879	-0.027737	-5.382086	-62.880702	-0.436663
36626		0.852382	-0.042196	-0.520478	-0.027703	-5.415039	-62.826824	-0.414365
36627		0.852576	-0.042521	-0.520131	-0.027737	-5.476152	-62.780653	-0.383774
36628		0.852703	-0.042890	-0.519892	-0.027749	-5.550927	-62.748764	-0.341178
36629		0.852787	-0.043184	-0.519732	-0.027712	-5.616690	-62.727184	-0.297226
36630		0.852862	-0.043498	-0.519584	-0.027674	-5.686895	-62.707281	-0.250247
36631		0.852891	-0.043837	-0.519508	-0.027675	-5.758210	-62.697188	-0.207470
36632		0.852910	-0.044036	-0.519465	-0.027591	-5.811229	-62.690780	-0.164091
36633		0.852888	-0.044115	-0.519501	-0.027461	-5.845394	-62.694784	-0.125648
36634		0.852841	-0.044111	-0.519585	-0.027338	-5.861359	-62.705229	-0.098965
36635		0.852775	-0.044002	-0.519711	-0.027183	-5.859741	-62.720964	-0.078312
36636		0.852725	-0.043872	-0.519812	-0.027031	-5.853027	-62.733459	-0.061278
36637		0.852679	-0.043785	-0.519902	-0.026895	-5.853352	-62.744611	-0.042274
36638		0.852607	-0.043680	-0.520035	-0.026779	-5.847618	-62.761602	-0.029249
36639		0.852518	-0.043486	-0.520207	-0.026560	-5.836852	-62.783272	-0.005324
36640		0.852399	-0.043304	-0.520430	-0.026325	-5.831543	-62.811479	0.024492
36641		0.852228	-0.043209	-0.520728	-0.026149	-5.837973	-62.850256	0.054098
36642		0.852074	-0.043155	-0.520986	-0.026115	-5.834389	-62.884603	0.058224
36643		0.852010	-0.043085	-0.521095	-0.026144	-5.817012	-62.899448	0.044397
36644		0.851989	-0.042939	-0.521140	-0.026153	-5.784993	-62.905557	0.023998
36645		0.851910	-0.042758	-0.521282	-0.026189	-5.743368	-62.924918	-0.005391
36646		0.851970	-0.042685	-0.521185	-0.026291	-5.712951	-62.912481	-0.038352
36647		0.852087	-0.042482	-0.521009	-0.026309	-5.664629	-62.889095	-0.071543
36648		0.852118	-0.042092	-0.520996	-0.026211	-5.593670	-62.886583	-0.101785
36649		0.852170	-0.041511	-0.520962	-0.026127	-5.479341	-62.881370	-0.160690
36650		0.852237	-0.040994	-0.520884	-0.026290	-5.346140	-62.871905	-0.264420
36651		0.852456	-0.040273	-0.520576	-0.026414	-5.171828	-62.831038	-0.389407
36652		0.852591	-0.039503	-0.520404	-0.026593	-4.981742	-62.808636	-0.530473
36653		0.852656	-0.038769	-0.520340	-0.026842	-4.791519	-62.800941	-0.680297
36654		0.852700	-0.038411	-0.520279	-0.027161	-4.672757	-62.794149	-0.795868
36655		0.852706	-0.038211	-0.520256	-0.027658	-4.564792	-62.793644	-0.928580
36656		0.852835	-0.037746	-0.520063	-0.027971	-4.423050	-62.768755	-1.057932
36657		0.853223	-0.037204	-0.519450	-0.028249	-4.266695	-62.687251	-1.193227
36658		0.853836	-0.035988	-0.518529	-0.028233	-4.004110	-62.561862	-1.354351
36659		0.854428	-0.033722	-0.517736	-0.027643	-3.595099	-62.449273	-1.526205
36660		0.854968	-0.030291	-0.517119	-0.026468	-3.017098	-62.355496	-1.720452
36661		0.855401	-0.026139	-0.516712	-0.024799	-2.352724	-62.286946	-1.899351
36662		0.855541	-0.023168	-0.516680	-0.023560	-1.884151	-62.272823	-2.016537
36663		0.855462	-0.021525	-0.516900	-0.023168	-1.587155	-62.297447	-2.143371
36664		0.855323	-0.020376	-0.517177	-0.023125	-1.349620	-62.331556	-2.281090
36665		0.855289	-0.019866	-0.517250	-0.023194	-1.232879	-62.340030	-2.360967
36666		0.855183	-0.019687	-0.517427	-0.023314	-1.179199	-62.363464	-2.409516
36667		0.854882	-0.019109	-0.517967	-0.022856	-1.113709	-62.433519	-2.388007
36668		0.854125	-0.017064	-0.519344	-0.021477	-0.852203	-62.610823	-2.362551
36669		0.852892	-0.014011	-0.521534	-0.019512	-0.446181	-62.894804	-2.348202
36670		0.852142	-0.011490	-0.522880	-0.017872	-0.112863	-63.068175	-2.333738
36671		0.851916	-0.010005	-0.523312	-0.016864	0.076401	-63.122166	-2.315033
36672		0.851826	-0.009786	-0.523475	-0.016472	0.072679	-63.143514	-2.260285
36673		0.851872	-0.011886	-0.523326	-0.017418	-0.256042	-63.129079	-2.185393
36674		0.852004	-0.015099	-0.522964	-0.019201	-0.714854	-63.089644	-2.143184
36675		0.851704	-0.017674	-0.523317	-0.020665	-1.075174	-63.144980	-2.119117
36676		0.850853	-0.019331	-0.524609	-0.021471	-1.323284	-63.324070	-2.074971
36677		0.849649	-0.020039	-0.526516	-0.021838	-1.424036	-63.583278	-2.061930
36678		0.848631	-0.020678	-0.528117	-0.022138	-1.520293	-63.801296	-2.042294
36679		0.848336	-0.021733	-0.528516	-0.022898	-1.647918	-63.859105	-2.065291
36680		0.848903	-0.023716	-0.527459	-0.024257	-1.899927	-63.724162	-2.092562
36681		0.849128	-0.025407	-0.526965	-0.025385	-2.117841	-63.664365	-2.109841
36682		0.848873	-0.026414	-0.527292	-0.026077	-2.244402	-63.712805	-2.124397
36683		0.848832	-0.028452	-0.527190	-0.027290	-2.526745	-63.707548	-2.112810
36684		0.848599	-0.030457	-0.527385	-0.028597	-2.789136	-63.742966	-2.125863
36685		0.848009	-0.032027	-0.528182	-0.029638	-2.993704	-63.857944	-2.137545
36686		0.847371	-0.033368	-0.529077	-0.030447	-3.180162	-63.985189	-2.128684
36687		0.846749	-0.034704	-0.529943	-0.031176	-3.377700	-64.108351	-2.101783
36688		0.846315	-0.035767	-0.530540	-0.031600	-3.557191	-64.193349	-2.045116
36689		0.845829	-0.036817	-0.531217	-0.032050	-3.731230	-64.289398	-1.994785
36690		0.845383	-0.037119	-0.531912	-0.031931	-3.818280	-64.383580	-1.921905
36691		0.845047	-0.037444	-0.532435	-0.031721	-3.923169	-64.454191	-1.825761
36692		0.844784	-0.038055	-0.532810	-0.031716	-4.063476	-64.506246	-1.735350
36693		0.844415	-0.038654	-0.533353	-0.031693	-4.204951	-64.580836	-1.640870
36694		0.843995	-0.039120	-0.533984	-0.031664	-4.318423	-64.667137	-1.562733
36695		0.843533	-0.039836	-0.534651	-0.031848	-4.458900	-64.759799	-1.496111
36696		0.843146	-0.040522	-0.535193	-0.032109	-4.581086	-64.835906	-1.451689
36697		0.842854	-0.041196	-0.535585	-0.032390	-4.697250	-64.891783	-1.414272
36698		0.842454	-0.041592	-0.536173	-0.032545	-4.770189	-64.973225	-1.386199
36699		0.842033	-0.042049	-0.536789	-0.032702	-4.857087	-65.058526	-1.349194
36700		0.841705	-0.042441	-0.537266	-0.032802	-4.936699	-65.124463	-1.309810
36701		0.841352	-0.042865	-0.537782	-0.032875	-5.028348	-65.195644	-1.258545
36702		0.840949	-0.043675	-0.538330	-0.033135	-5.182248	-65.272886	-1.192582
36703		0.840609	-0.044174	-0.538813	-0.033247	-5.285969	-65.339970	-1.138862
36704		0.840437	-0.044212	-0.539092	-0.033037	-5.328879	-65.376630	-1.081216
36705		0.840032	-0.044613	-0.539690	-0.033022	-5.430548	-65.458497	-1.010530
36706		0.839726	-0.045059	-0.540124	-0.033089	-5.529458	-65.518517	-0.953493
36707		0.839397	-0.045419	-0.540604	-0.033117	-5.614763	-65.584374	-0.899652
36708		0.838991	-0.045779	-0.541205	-0.033109	-5.707604	-65.666603	-0.834965
36709		0.838590	-0.046179	-0.541797	-0.033022	-5.822116	-65.747089	-0.745422
36710		0.838208	-0.046465	-0.542370	-0.032910	-5.913981	-65.824666	-0.667066
36711		0.837834	-0.046393	-0.542973	-0.032589	-5.954085	-65.904475	-0.593345
36712		0.837624	-0.046491	-0.543299	-0.032433	-6.005708	-65.947904	-0.536406
36713		0.837300	-0.047196	-0.543726	-0.032602	-6.152916	-66.007909	-0.461076
36714		0.836880	-0.047853	-0.544305	-0.032787	-6.289305	-66.088517	-0.393521
36715		0.836560	-0.047968	-0.544796	-0.032624	-6.349410	-66.154379	-0.328599
36716		0.836152	-0.048275	-0.545398	-0.032560	-6.442296	-66.236286	-0.254841
36717		0.835838	-0.048884	-0.545815	-0.032720	-6.570109	-66.294688	-0.190092
36718		0.835756	-0.049162	-0.545916	-0.032714	-6.639342	-66.308510	-0.143286
36719		0.835770	-0.049648	-0.545846	-0.032796	-6.741500	-66.299624	-0.088311
36720		0.835619	-0.050229	-0.546013	-0.032979	-6.854997	-66.323960	-0.037887
36721		0.835449	-0.050466	-0.546252	-0.032973	-6.917246	-66.356607	0.005592
36722		0.835315	-0.050759	-0.546426	-0.033028	-6.982193	-66.380870	0.041995
36723		0.835163	-0.051016	-0.546632	-0.033071	-7.041247	-66.409271	0.076585
36724		0.835036	-0.051226	-0.546799	-0.033200	-7.074756	-66.433185	0.082259
36725		0.834923	-0.051479	-0.546935	-0.033394	-7.107888	-66.453463	0.078552
36726		0.834864	-0.051454	-0.547023	-0.033475	-7.090989	-66.466207	0.057256
36727		0.834859	-0.051309	-0.547040	-0.033540	-7.046321	-66.468992	0.019222
36728		0.834864	-0.051282	-0.547024	-0.033733	-7.009272	-66.468403	-0.031624
36729		0.834879	-0.051222	-0.546993	-0.033936	-6.962583	-66.465939	-0.090190
36730		0.834941	-0.051126	-0.546896	-0.034116	-6.909476	-66.454162	-0.150458
36731		0.835069	-0.050990	-0.546706	-0.034242	-6.853664	-66.429211	-0.205722
36732		0.835265	-0.050886	-0.546409	-0.034351	-6.806372	-66.389366	-0.253919
36733		0.835504	-0.050800	-0.546047	-0.034420	-6.768659	-66.340528	-0.290892
36734		0.835766	-0.050738	-0.545648	-0.034493	-6.735512	-66.286475	-0.325705
36735		0.836035	-0.050713	-0.545233	-0.034566	-6.711156	-66.230440	-0.354693
36736		0.836315	-0.050713	-0.544799	-0.034642	-6.691904	-66.171711	-0.380993
36737		0.836602	-0.050724	-0.544352	-0.034703	-6.677663	-66.111232	-0.402066
36738		0.836908	-0.050774	-0.543872	-0.034789	-6.668299	-66.046373	-0.423511
36739		0.837233	-0.050850	-0.543358	-0.034875	-6.664691	-65.977035	-0.441561
36740		0.837581	-0.050886	-0.542815	-0.034943	-6.653755	-65.903517	-0.462007
36741		0.837940	-0.050940	-0.542250	-0.035030	-6.644237	-65.827176	-0.484361
36742		0.838316	-0.050987	-0.541658	-0.035126	-6.631295	-65.747270	-0.510211
36743		0.838718	-0.050980	-0.541028	-0.035245	-6.601693	-65.662457	-0.550284
36744		0.839170	-0.050990	-0.540318	-0.035375	-6.573286	-65.566744	-0.591562
36745		0.839679	-0.051042	-0.539509	-0.035548	-6.547196	-65.458154	-0.637811
36746		0.840242	-0.051079	-0.538619	-0.035693	-6.521072	-65.338296	-0.680667
36747		0.840829	-0.051211	-0.537670	-0.035973	-6.496394	-65.211604	-0.741360
36748		0.841427	-0.051304	-0.536709	-0.036225	-6.467049	-65.083136	-0.801128
36749		0.842039	-0.051369	-0.535723	-0.036504	-6.427681	-64.951507	-0.870988
36750		0.842679	-0.051469	-0.534687	-0.036791	-6.394953	-64.813291	-0.937975
36751		0.843310	-0.051625	-0.533651	-0.037144	-6.366029	-64.675806	-1.011111
36752		0.843979	-0.051657	-0.532575	-0.037358	-6.328886	-64.531682	-1.070925
36753		0.844639	-0.051746	-0.531502	-0.037596	-6.301896	-64.388396	-1.127247
36754		0.845296	-0.051797	-0.530444	-0.037688	-6.287209	-64.246109	-1.155922
36755		0.845903	-0.051854	-0.529462	-0.037802	-6.272435	-64.114456	-1.186900
36756		0.846493	-0.051987	-0.528498	-0.037910	-6.275469	-63.985274	-1.205913
36757		0.847075	-0.052106	-0.527543	-0.038040	-6.272522	-63.857588	-1.231474
36758		0.847681	-0.052099	-0.526570	-0.038036	-6.260278	-63.726312	-1.244894
36759		0.848291	-0.052218	-0.525569	-0.038105	-6.265348	-63.592230	-1.257494
36760		0.848832	-0.052439	-0.524673	-0.038124	-6.301004	-63.471974	-1.243779
36761		0.849304	-0.052689	-0.523875	-0.038234	-6.331524	-63.365881	-1.244953
36762		0.849741	-0.052635	-0.523178	-0.038141	-6.324142	-63.271366	-1.241576
36763		0.850149	-0.052476	-0.522538	-0.038034	-6.296540	-63.184348	-1.248328
36764		0.850550	-0.052383	-0.521900	-0.037954	-6.279670	-63.097850	-1.252045
36765		0.850882	-0.052489	-0.521347	-0.037975	-6.293654	-63.023897	-1.249821
36766		0.851240	-0.052628	-0.520743	-0.038050	-6.306967	-62.943577	-1.255745
36767		0.851662	-0.052656	-0.520053	-0.038003	-6.311419	-62.850734	-1.251082
36768		0.852069	-0.052484	-0.519413	-0.037871	-6.284587	-62.763669	-1.253926
36769		0.852418	-0.052458	-0.518846	-0.037828	-6.278290	-62.687304	-1.255678
36770		0.852812	-0.052301	-0.518222	-0.037709	-6.253342	-62.602606	-1.259011
36771		0.853175	-0.052120	-0.517653	-0.037562	-6.227542	-62.525129	-1.258534
36772		0.853440	-0.051948	-0.517245	-0.037404	-6.206826	-62.469010	-1.252620
36773		0.853601	-0.051878	-0.516994	-0.037305	-6.201963	-62.434648	-1.243864
36774		0.853804	-0.051697	-0.516684	-0.037198	-6.173888	-62.392176	-1.248498
36775		0.854017	-0.051868	-0.516311	-0.037260	-6.198092	-62.342923	-1.244625
36776		0.854196	-0.052115	-0.515975	-0.037447	-6.223146	-62.299706	-1.256509
36777		0.854457	-0.052038	-0.515549	-0.037487	-6.197327	-62.242843	-1.280242
36778		0.854777	-0.051952	-0.515020	-0.037581	-6.161674	-62.172706	-1.317624
36779		0.855080	-0.051732	-0.514536	-0.037606	-6.107389	-62.107952	-1.356661
36780		0.855404	-0.051423	-0.514035	-0.037516	-6.048714	-62.039780	-1.383095
36781		0.855596	-0.051210	-0.513739	-0.037493	-6.004099	-61.999727	-1.408559
36782		0.855613	-0.051005	-0.513734	-0.037446	-5.966894	-61.998424	-1.424723
36783		0.855630	-0.050713	-0.513740	-0.037388	-5.913142	-61.998295	-1.449148
36784		0.855653	-0.050551	-0.513714	-0.037421	-5.874709	-61.994874	-1.476820
36785		0.855607	-0.050382	-0.513808	-0.037416	-5.840911	-62.007022	-1.495957
36786		0.855505	-0.050065	-0.514013	-0.037363	-5.782960	-62.033493	-1.522452
36787		0.855437	-0.049816	-0.514144	-0.037440	-5.722179	-62.051092	-1.568622
36788		0.855610	-0.049794	-0.513839	-0.037706	-5.681434	-62.012116	-1.630395
36789		0.855735	-0.049897	-0.513600	-0.037979	-5.666815	-61.982183	-1.676943
36790		0.855795	-0.050138	-0.513449	-0.038348	-5.669925	-61.964925	-1.725101
36791		0.855925	-0.050260	-0.513206	-0.038550	-5.668246	-61.934084	-1.754485
36792		0.855976	-0.050361	-0.513101	-0.038676	-5.672731	-61.921110	-1.769117
36793		0.855943	-0.050317	-0.513163	-0.038654	-5.666850	-61.929126	-1.769369
36794		0.855916	-0.050047	-0.513238	-0.038599	-5.617861	-61.938253	-1.791021
36795		0.856039	-0.050018	-0.513029	-0.038696	-5.597988	-61.910820	-1.817010
36796		0.856283	-0.049749	-0.512647	-0.038700	-5.538422	-61.859270	-1.855190
36797		0.856449	-0.049544	-0.512383	-0.038786	-5.483070	-61.824258	-1.901235
36798		0.856555	-0.049754	-0.512170	-0.038995	-5.499338	-61.797553	-1.920520
36799		0.856613	-0.049646	-0.512084	-0.038963	-5.480190	-61.785722	-1.928145
36800		0.856747	-0.049709	-0.511855	-0.038967	-5.491194	-61.755307	-1.923171
36801		0.856849	-0.049569	-0.511705	-0.038872	-5.472723	-61.734391	-1.922351
36802		0.856931	-0.049564	-0.511570	-0.038847	-5.473771	-61.716179	-1.919036
36803		0.856987	-0.049585	-0.511472	-0.038865	-5.475309	-61.703295	-1.921056
36804		0.857006	-0.049427	-0.511468	-0.038705	-5.462065	-61.701368	-1.907634
36805		0.857003	-0.049204	-0.511515	-0.038429	-5.450280	-61.705335	-1.877530
36806		0.856950	-0.049093	-0.511621	-0.038345	-5.438285	-61.718791	-1.872978
36807		0.856948	-0.048822	-0.511665	-0.038163	-5.404803	-61.722796	-1.868463
36808		0.856984	-0.048378	-0.511665	-0.037909	-5.344045	-61.720279	-1.870886
36809		0.856982	-0.048058	-0.511707	-0.037796	-5.291577	-61.724511	-1.887036
36810		0.857056	-0.047717	-0.511624	-0.037668	-5.236060	-61.711876	-1.903469
36811		0.857073	-0.047448	-0.511622	-0.037650	-5.182353	-61.710912	-1.933212
36812		0.857257	-0.046955	-0.511374	-0.037441	-5.104283	-61.675496	-1.952978
36813		0.857473	-0.046559	-0.511057	-0.037328	-5.034034	-61.631659	-1.981283
36814		0.857633	-0.046163	-0.510833	-0.037203	-4.966122	-61.600066	-2.006157
36815		0.857951	-0.045708	-0.510357	-0.036967	-4.898258	-61.534221	-2.017186
36816		0.858185	-0.045346	-0.510012	-0.036750	-4.848178	-61.486182	-2.019445
36817		0.858322	-0.045009	-0.509818	-0.036637	-4.791241	-61.458937	-2.039027
36818		0.858434	-0.044527	-0.509680	-0.036531	-4.704137	-61.438751	-2.077324
36819		0.858735	-0.044096	-0.509224	-0.036344	-4.635938	-61.375966	-2.094644
36820		0.859195	-0.043351	-0.508542	-0.035901	-4.533317	-61.281001	-2.099160
36821		0.859643	-0.042910	-0.507841	-0.035633	-4.472275	-61.185162	-2.102268
36822		0.860013	-0.042696	-0.507231	-0.035665	-4.422097	-61.103630	-2.138346
36823		0.860406	-0.043039	-0.506508	-0.036052	-4.442570	-61.010361	-2.180401
36824		0.860756	-0.043332	-0.505856	-0.036492	-4.446891	-60.926712	-2.238778
36825		0.861298	-0.043644	-0.504873	-0.036948	-4.452410	-60.799330	-2.299660
36826		0.861933	-0.044052	-0.503722	-0.037345	-4.483702	-60.649710	-2.338234
36827		0.862598	-0.044311	-0.502544	-0.037556	-4.506661	-60.495282	-2.357174
36828		0.863167	-0.044822	-0.501497	-0.037875	-4.568223	-60.359561	-2.367352
36829		0.863572	-0.045646	-0.500684	-0.038408	-4.668228	-60.257067	-2.383051
36830		0.863927	-0.046082	-0.500006	-0.038745	-4.713821	-60.170284	-2.403846
36831		0.864303	-0.046247	-0.499334	-0.038828	-4.734450	-60.082338	-2.405474
36832		0.864608	-0.046423	-0.498784	-0.038884	-4.760836	-60.010331	-2.399735
36833		0.864974	-0.046714	-0.498115	-0.038989	-4.803951	-59.923276	-2.391378
36834		0.865444	-0.046780	-0.497301	-0.038871	-4.827150	-59.815218	-2.365691
36835		0.865805	-0.046774	-0.496692	-0.038617	-4.852118	-59.733364	-2.320270
36836		0.866065	-0.046878	-0.496248	-0.038357	-4.900065	-59.673553	-2.260182
36837		0.866177	-0.046905	-0.496069	-0.038115	-4.931904	-59.648613	-2.210667
36838		0.866354	-0.046714	-0.495802	-0.037797	-4.928776	-59.611133	-2.171681
36839		0.866524	-0.046684	-0.495527	-0.037544	-4.949926	-59.573333	-2.127362
36840		0.866680	-0.046680	-0.495271	-0.037318	-4.973207	-59.538194	-2.085267
36841		0.866757	-0.046852	-0.495132	-0.037172	-5.022573	-59.519382	-2.038358
36842		0.866786	-0.047011	-0.495074	-0.037056	-5.066529	-59.511530	-1.998174
36843		0.866846	-0.047197	-0.494957	-0.036984	-5.110384	-59.496064	-1.964138
36844		0.866882	-0.047331	-0.494886	-0.036914	-5.144176	-59.486550	-1.935966
36845		0.866907	-0.047302	-0.494860	-0.036723	-5.159532	-59.481956	-1.902081
36846		0.866948	-0.047177	-0.494816	-0.036498	-5.159977	-59.474493	-1.872434
36847		0.866997	-0.046981	-0.494771	-0.036200	-5.154563	-59.466465	-1.836393
36848		0.867037	-0.046837	-0.494736	-0.035921	-5.157067	-59.459816	-1.798363
36849		0.867048	-0.046771	-0.494741	-0.035661	-5.173343	-59.458863	-1.754684
36850		0.867014	-0.046765	-0.494817	-0.035431	-5.198145	-59.467424	-1.709883
36851		0.866956	-0.046691	-0.494947	-0.035143	-5.216730	-59.482774	-1.660601
36852		0.866920	-0.046587	-0.495041	-0.034857	-5.228845	-59.493151	-1.615502
36853		0.866880	-0.046495	-0.495143	-0.034525	-5.248556	-59.504421	-1.559960
36854		0.866805	-0.046452	-0.495298	-0.034233	-5.273910	-59.523043	-1.506066
36855		0.866647	-0.046512	-0.495585	-0.033985	-5.315243	-59.559587	-1.448321
36856		0.866464	-0.046616	-0.495909	-0.033793	-5.359572	-59.601275	-1.395916
36857		0.866278	-0.046769	-0.496232	-0.033604	-5.413395	-59.643011	-1.338429
36858		0.866076	-0.046969	-0.496579	-0.033405	-5.478006	-59.687762	-1.273232
36859		0.865809	-0.047320	-0.497020	-0.033262	-5.566877	-59.745610	-1.200795
36860		0.865504	-0.047871	-0.497497	-0.033273	-5.678654	-59.809467	-1.135380
36861		0.865142	-0.048369	-0.498080	-0.033252	-5.784677	-59.886884	-1.068181
36862		0.864805	-0.048753	-0.498631	-0.033208	-5.871126	-59.959880	-1.009102
36863		0.864436	-0.049158	-0.499229	-0.033220	-5.955793	-60.039477	-0.958187
36864		0.864044	-0.049336	-0.499898	-0.033113	-6.010104	-60.127360	-0.908400
36865		0.863762	-0.049327	-0.500402	-0.032866	-6.041883	-60.192269	-0.854134
36866		0.863392	-0.049171	-0.501073	-0.032587	-6.049648	-60.279012	-0.808410
36867		0.862821	-0.049093	-0.502073	-0.032437	-6.061980	-60.410235	-0.774925
36868		0.862250	-0.049055	-0.503063	-0.032348	-6.075191	-60.540686	-0.748888
36869		0.861758	-0.049155	-0.503890	-0.032452	-6.092132	-60.651126	-0.747366
36870		0.861167	-0.049665	-0.504815	-0.032961	-6.145205	-60.777970	-0.777809
36871		0.860874	-0.049678	-0.505299	-0.033196	-6.125351	-60.843807	-0.817462
36872		0.860808	-0.048894	-0.505504	-0.032949	-5.997587	-60.868522	-0.858345
36873		0.860622	-0.047998	-0.505927	-0.032616	-5.859215	-60.921579	-0.892884
36874		0.860588	-0.047106	-0.506090	-0.032280	-5.719322	-60.939993	-0.929450
36875		0.860619	-0.046076	-0.506160	-0.031830	-5.563764	-60.945223	-0.960804
36876		0.860628	-0.044739	-0.506304	-0.031197	-5.368411	-60.958790	-0.990869
36877		0.860437	-0.043712	-0.506753	-0.030649	-5.228377	-61.013915	-0.998082
36878		0.860243	-0.042248	-0.507243	-0.030033	-5.007523	-61.073640	-1.043752
36879		0.859998	-0.040570	-0.507840	-0.029271	-4.760576	-61.146578	-1.085278
36880		0.859694	-0.038209	-0.508611	-0.027954	-4.441476	-61.239102	-1.095175
36881		0.859345	-0.035546	-0.509488	-0.026176	-4.115847	-61.343714	-1.047710
36882		0.858837	-0.032915	-0.510625	-0.024042	-3.841185	-61.482298	-0.922041
36883		0.858211	-0.030510	-0.511918	-0.021975	-3.605624	-61.643391	-0.781806
36884		0.857675	-0.028294	-0.513028	-0.019907	-3.408113	-61.781184	-0.619859
36885		0.856868	-0.027068	-0.514497	-0.018395	-3.349875	-61.970664	-0.447681
36886		0.855916	-0.027111	-0.516105	-0.017576	-3.472753	-62.182410	-0.258163
36887		0.854739	-0.028309	-0.517990	-0.017483	-3.751987	-62.434553	-0.069242
36888		0.853850	-0.030708	-0.519293	-0.018214	-4.179132	-62.612428	0.098294
36889		0.853332	-0.033325	-0.519945	-0.019271	-4.607263	-62.704859	0.220640
36890		0.852799	-0.035606	-0.520621	-0.020493	-4.943987	-62.801637	0.266017
36891		0.851984	-0.037686	-0.521771	-0.021416	-5.284252	-62.960709	0.357338
36892		0.851348	-0.039638	-0.522631	-0.022171	-5.617443	-63.080065	0.465968
36893		0.850935	-0.041811	-0.523096	-0.023061	-5.976419	-63.147197	0.570235
36894		0.850623	-0.044192	-0.523361	-0.024104	-6.358233	-63.188656	0.666970
36895		0.850138	-0.046470	-0.523900	-0.025176	-6.719411	-63.267356	0.749713
36896		0.849482	-0.049373	-0.524630	-0.026589	-7.176091	-63.374129	0.847810
36897		0.848886	-0.051763	-0.525309	-0.027640	-7.570632	-63.472047	0.956713
36898		0.848252	-0.053651	-0.526102	-0.028421	-7.895466	-63.583419	1.060546
36899		0.847607	-0.055183	-0.526945	-0.029092	-8.160101	-63.701167	1.143167
36900		0.847156	-0.056017	-0.527565	-0.029386	-8.318321	-63.786273	1.208585
36901		0.846743	-0.056915	-0.528108	-0.029802	-8.472764	-63.862138	1.254540
36902		0.846394	-0.058003	-0.528514	-0.030411	-8.640318	-63.921292	1.281594
36903		0.846006	-0.059297	-0.528954	-0.031062	-8.848882	-63.985147	1.329026
36904		0.845525	-0.060833	-0.529504	-0.031824	-9.099768	-64.064839	1.389584
36905		0.845104	-0.062383	-0.529957	-0.032448	-9.371287	-64.129917	1.480979
36906		0.844735	-0.063754	-0.530349	-0.032980	-9.614794	-64.186191	1.566797
36907		0.844399	-0.064694	-0.530760	-0.033142	-9.813926	-64.241707	1.675000
36908		0.844002	-0.066083	-0.531195	-0.033555	-10.080710	-64.302277	1.792597
36909		0.843611	-0.067299	-0.531646	-0.033828	-10.329411	-64.363556	1.918225
36910		0.843368	-0.068083	-0.531927	-0.033888	-10.506262	-64.400275	2.025382
36911		0.843031	-0.069010	-0.532331	-0.034077	-10.701545	-64.454785	2.128669
36912		0.842730	-0.069499	-0.532746	-0.034015	-10.834068	-64.508731	2.226550
36913		0.842455	-0.069943	-0.533127	-0.033971	-10.953103	-64.558214	2.313081
36914		0.842122	-0.070629	-0.533554	-0.034093	-11.105790	-64.615505	2.399425
36915		0.841815	-0.070949	-0.533992	-0.034158	-11.184376	-64.674423	2.446940
36916		0.841583	-0.071302	-0.534307	-0.034221	-11.266768	-64.716615	2.495423
36917		0.841330	-0.071481	-0.534681	-0.034209	-11.322262	-64.766355	2.537919
36918		0.840941	-0.071719	-0.535261	-0.034211	-11.396897	-64.843846	2.593784
36919		0.840567	-0.072079	-0.535791	-0.034357	-11.477522	-64.916196	2.633603
36920		0.840201	-0.072508	-0.536291	-0.034602	-11.559221	-64.985683	2.660342
36921		0.839936	-0.072738	-0.536663	-0.034779	-11.600264	-65.037507	2.668418
36922		0.839566	-0.072879	-0.537215	-0.034896	-11.636235	-65.113267	2.684257
36923		0.839103	-0.072976	-0.537916	-0.035020	-11.667055	-65.209359	2.698244
36924		0.838583	-0.073061	-0.538701	-0.035249	-11.682916	-65.318255	2.689942
36925		0.838020	-0.073490	-0.539485	-0.035750	-11.739041	-65.429847	2.670595
36926		0.837545	-0.073893	-0.540133	-0.036261	-11.782922	-65.523294	2.640042
36927		0.837064	-0.074472	-0.540748	-0.037009	-11.831520	-65.615225	2.579844
36928		0.836687	-0.074980	-0.541212	-0.037715	-11.863762	-65.686419	2.512407
36929		0.836427	-0.075226	-0.541531	-0.038413	-11.830054	-65.738696	2.401186
36930		0.836064	-0.075408	-0.542019	-0.039069	-11.793603	-65.813542	2.296348
36931		0.835654	-0.075938	-0.542504	-0.040075	-11.786598	-65.891960	2.163008
36932		0.835333	-0.076431	-0.542848	-0.041151	-11.754396	-65.952491	2.001439
36933		0.834991	-0.076666	-0.543257	-0.042230	-11.662554	-66.022536	1.801610
36934		0.834656	-0.076785	-0.543675	-0.043257	-11.550480	-66.093183	1.595541
36935		0.834341	-0.076834	-0.544064	-0.044348	-11.409802	-66.160925	1.361329
36936		0.834152	-0.076847	-0.544267	-0.045380	-11.262566	-66.202410	1.128037
36937		0.834070	-0.077029	-0.544268	-0.046538	-11.128945	-66.217786	0.883299
36938		0.834061	-0.077139	-0.544176	-0.047591	-10.991284	-66.218993	0.648905
36939		0.834112	-0.077270	-0.543978	-0.048720	-10.843624	-66.206743	0.396272
36940		0.834239	-0.077349	-0.543671	-0.049841	-10.681863	-66.179199	0.134182
36941		0.834421	-0.077467	-0.543261	-0.051072	-10.510239	-66.138905	-0.150377
36942		0.834599	-0.077558	-0.542854	-0.052327	-10.329418	-66.099206	-0.444005
36943		0.834748	-0.077763	-0.542458	-0.053739	-10.153081	-66.062582	-0.755630
36944		0.834916	-0.077872	-0.542050	-0.055075	-9.965809	-66.023118	-1.063914
36945		0.835081	-0.077991	-0.541637	-0.056448	-9.776060	-65.983282	-1.378611
36946		0.835245	-0.078042	-0.541247	-0.057680	-9.592963	-65.944380	-1.669323
36947		0.835416	-0.078137	-0.540839	-0.058896	-9.423248	-65.902810	-1.949117
36948		0.835607	-0.078151	-0.540428	-0.059925	-9.263401	-65.858431	-2.196786
36949		0.835808	-0.078302	-0.539979	-0.060968	-9.133613	-65.809028	-2.427021
36950		0.836053	-0.078471	-0.539470	-0.061890	-9.026193	-65.750182	-2.626587
36951		0.836288	-0.078729	-0.538963	-0.062793	-8.943350	-65.691693	-2.807510
36952		0.836543	-0.078938	-0.538445	-0.063571	-8.868233	-65.630262	-2.966278
36953		0.836812	-0.079148	-0.537905	-0.064332	-8.796074	-65.565565	-3.120760
36954		0.837099	-0.079490	-0.537318	-0.065088	-8.755440	-65.494822	-3.254548
36955		0.837426	-0.079905	-0.536648	-0.065891	-8.724436	-65.413771	-3.388969
36956		0.837770	-0.080046	-0.536024	-0.066421	-8.671058	-65.335089	-3.500152
36957		0.838064	-0.080217	-0.535472	-0.066955	-8.625482	-65.266318	-3.606120
36958		0.838369	-0.080565	-0.534873	-0.067509	-8.617538	-65.192091	-3.691130
36959		0.838700	-0.080831	-0.534252	-0.067998	-8.600411	-65.113951	-3.773143
36960		0.839015	-0.080986	-0.533683	-0.068386	-8.573279	-65.041471	-3.847285
36961		0.839305	-0.081079	-0.533169	-0.068731	-8.539040	-64.975701	-3.919686
36962		0.839617	-0.081067	-0.532644	-0.068997	-8.492483	-64.907171	-3.989171
36963		0.839912	-0.080862	-0.532192	-0.069143	-8.419977	-64.846354	-4.058125
36964		0.840189	-0.080538	-0.531797	-0.069200	-8.334069	-64.791762	-4.123032
36965		0.840442	-0.080217	-0.531441	-0.069227	-8.253881	-64.742220	-4.179933
36966		0.840682	-0.079870	-0.531118	-0.069195	-8.176765	-64.696381	-4.226516
36967		0.840889	-0.079389	-0.530888	-0.069000	-8.093275	-64.661058	-4.254413
36968		0.841088	-0.078902	-0.530677	-0.068761	-8.015057	-64.627640	-4.272762
36969		0.841292	-0.078458	-0.530454	-0.068493	-7.950734	-64.592732	-4.278480
36970		0.841534	-0.078080	-0.530165	-0.068178	-7.907617	-64.548777	-4.264788
36971		0.841825	-0.077492	-0.529848	-0.067726	-7.836331	-64.498682	-4.250309
36972		0.842126	-0.076606	-0.529581	-0.067069	-7.727302	-64.452045	-4.231652
36973		0.842386	-0.075976	-0.529324	-0.066558	-7.655458	-64.409371	-4.209211
36974		0.842645	-0.075385	-0.529065	-0.066008	-7.597915	-64.366448	-4.172333
36975		0.842878	-0.074581	-0.528890	-0.065344	-7.509222	-64.332981	-4.139220
36976		0.843297	-0.073779	-0.528421	-0.064644	-7.424095	-64.259410	-4.100547
36977		0.843718	-0.073171	-0.527911	-0.063998	-7.374590	-64.181910	-4.047045
36978		0.844141	-0.072280	-0.527462	-0.063128	-7.293496	-64.109517	-3.982697
36979		0.844652	-0.071357	-0.526884	-0.062163	-7.217604	-64.018897	-3.902882
36980		0.845130	-0.070239	-0.526402	-0.061014	-7.124369	-63.939137	-3.808555
36981		0.845655	-0.069347	-0.525784	-0.060088	-7.049471	-63.843996	-3.733652
36982		0.846368	-0.068346	-0.524883	-0.059052	-6.963893	-63.709601	-3.651924
36983		0.847057	-0.067408	-0.523999	-0.058106	-6.879991	-63.578808	-3.581173
36984		0.847646	-0.066367	-0.523288	-0.057111	-6.781310	-63.470684	-3.512034
36985		0.848112	-0.065308	-0.522768	-0.056162	-6.673897	-63.388942	-3.453361
36986		0.848514	-0.064335	-0.522332	-0.055267	-6.578681	-63.319353	-3.393880
36987		0.848922	-0.063431	-0.521865	-0.054447	-6.488444	-63.246741	-3.341437
36988		0.849389	-0.062664	-0.521288	-0.053579	-6.433543	-63.159511	-3.261444
36989		0.849881	-0.061806	-0.520672	-0.052753	-6.353102	-63.067288	-3.202910
36990		0.850416	-0.060629	-0.520036	-0.051768	-6.224991	-62.970290	-3.152160
36991		0.850812	-0.059826	-0.519545	-0.051116	-6.134496	-62.896644	-3.122454
36992		0.851030	-0.059230	-0.519314	-0.050521	-6.083050	-62.859296	-3.075074
36993		0.851036	-0.058832	-0.519393	-0.050070	-6.056901	-62.865233	-3.030075
36994		0.850948	-0.058574	-0.519614	-0.049581	-6.066618	-62.890501	-2.957422
36995		0.850887	-0.058241	-0.519809	-0.048980	-6.075000	-62.911166	-2.870604
36996		0.850847	-0.057537	-0.520028	-0.048161	-6.032352	-62.932472	-2.785464
36997		0.850851	-0.056825	-0.520172	-0.047373	-5.983378	-62.943981	-2.708943
36998		0.850816	-0.056365	-0.520344	-0.046659	-5.979139	-62.960528	-2.614732
36999		0.850714	-0.056365	-0.520542	-0.046316	-6.025759	-62.984741	-2.539008
37000		0.850627	-0.056442	-0.520697	-0.046084	-6.073826	-63.004089	-2.477597
37001		0.850554	-0.056461	-0.520833	-0.045871	-6.106980	-63.020870	-2.427904
37002		0.850434	-0.056210	-0.521083	-0.045562	-6.095485	-63.051551	-2.392084
37003		0.850294	-0.055912	-0.521373	-0.045208	-6.080134	-63.087118	-2.352390
37004		0.850195	-0.055422	-0.521623	-0.044799	-6.030282	-63.116481	-2.326635
37005		0.850123	-0.055178	-0.521786	-0.044562	-6.010141	-63.136063	-2.306237
37006		0.850002	-0.055182	-0.521989	-0.044484	-6.022953	-63.162775	-2.286744
37007		0.849803	-0.055289	-0.522300	-0.044506	-6.045675	-63.205035	-2.274095
37008		0.849624	-0.055203	-0.522605	-0.044455	-6.036357	-63.245393	-2.271295
37009		0.849436	-0.055320	-0.522894	-0.044500	-6.058053	-63.284963	-2.262425
37010		0.849224	-0.055720	-0.523175	-0.044729	-6.116833	-63.325482	-2.255451
37011		0.849106	-0.056010	-0.523321	-0.044905	-6.157758	-63.347152	-2.253076
37012		0.849013	-0.056181	-0.523439	-0.045072	-6.173516	-63.364717	-2.265228
37013		0.848963	-0.056409	-0.523478	-0.045284	-6.195396	-63.372045	-2.279966
37014		0.848889	-0.056417	-0.523589	-0.045382	-6.184796	-63.387760	-2.299094
37015		0.848887	-0.056461	-0.523582	-0.045434	-6.187375	-63.387301	-2.304594
37016		0.848921	-0.056756	-0.523476	-0.045663	-6.220071	-63.375519	-2.315820
37017		0.848948	-0.056853	-0.523406	-0.045827	-6.218587	-63.367573	-2.339243
37018		0.848975	-0.056580	-0.523396	-0.045787	-6.164473	-63.365123	-2.367222
37019		0.849205	-0.056234	-0.523065	-0.045737	-6.093284	-63.319317	-2.406229
37020		0.849401	-0.055984	-0.522770	-0.045784	-6.030356	-63.279171	-2.452894
37021		0.849582	-0.055640	-0.522517	-0.045731	-5.960708	-63.243808	-2.489966
37022		0.849802	-0.055297	-0.522201	-0.045655	-5.894159	-63.199799	-2.522377
37023		0.850037	-0.055044	-0.521850	-0.045606	-5.843424	-63.151598	-2.548687
37024		0.850253	-0.054805	-0.521532	-0.045510	-5.802178	-63.107429	-2.562770
37025		0.850418	-0.054556	-0.521300	-0.045377	-5.764421	-63.074623	-2.569147
37026		0.850589	-0.054327	-0.521060	-0.045215	-5.734600	-63.040533	-2.566861
37027		0.850746	-0.054167	-0.520831	-0.045070	-5.717622	-63.008438	-2.558919
37028		0.850902	-0.054059	-0.520598	-0.044961	-5.707196	-62.976031	-2.551821
37029		0.851052	-0.053993	-0.520369	-0.044838	-5.707852	-62.944285	-2.535909
37030		0.851254	-0.053990	-0.520051	-0.044715	-5.721122	-62.900713	-2.512899
37031		0.851435	-0.054049	-0.519755	-0.044636	-5.742023	-62.860655	-2.490948
37032		0.851609	-0.054088	-0.519475	-0.044530	-5.762484	-62.822526	-2.465565
37033		0.851697	-0.054132	-0.519335	-0.044421	-5.785084	-62.803061	-2.437862
37034		0.851754	-0.054233	-0.519238	-0.044329	-5.817985	-62.789758	-2.406015
37035		0.851809	-0.054473	-0.519125	-0.044309	-5.871295	-62.775112	-2.371347
37036		0.851854	-0.054877	-0.519006	-0.044345	-5.952055	-62.760511	-2.327599
37037		0.851835	-0.055403	-0.518965	-0.044521	-6.041473	-62.757724	-2.296882
37038		0.851875	-0.055867	-0.518834	-0.044710	-6.115364	-62.742769	-2.277917
37039		0.851958	-0.056345	-0.518628	-0.044920	-6.188596	-62.717946	-2.262567
37040		0.852017	-0.056845	-0.518451	-0.045216	-6.255627	-62.697676	-2.262433
37041		0.852088	-0.057185	-0.518273	-0.045498	-6.290378	-62.676762	-2.280076
37042		0.852156	-0.057467	-0.518102	-0.045801	-6.310003	-62.656917	-2.309786
37043		0.852156	-0.057806	-0.518028	-0.046204	-6.329624	-62.650886	-2.352320
37044		0.852135	-0.058111	-0.517995	-0.046594	-6.343965	-62.650153	-2.396103
37045		0.852130	-0.058391	-0.517938	-0.046963	-6.355789	-62.646103	-2.438626
37046		0.852187	-0.058610	-0.517791	-0.047267	-6.361894	-62.629285	-2.476585
37047		0.852234	-0.058753	-0.517673	-0.047532	-6.357484	-62.615918	-2.515361
37048		0.852269	-0.058873	-0.517586	-0.047716	-6.358492	-62.605895	-2.539991
37049		0.852369	-0.059131	-0.517374	-0.047907	-6.387349	-62.579760	-2.549233
37050		0.852542	-0.059447	-0.517035	-0.048085	-6.428996	-62.536667	-2.549777
37051		0.852717	-0.059763	-0.516695	-0.048253	-6.471775	-62.493322	-2.548248
37052		0.852833	-0.060315	-0.516410	-0.048568	-6.546465	-62.459186	-2.546857
37053		0.852894	-0.061041	-0.516183	-0.048992	-6.644397	-62.434289	-2.545629
37054		0.852918	-0.061607	-0.516041	-0.049372	-6.714696	-62.419860	-2.554784
37055		0.852924	-0.061892	-0.515980	-0.049541	-6.753084	-62.413961	-2.554532
37056		0.852952	-0.061937	-0.515922	-0.049613	-6.752963	-62.406855	-2.564538
37057		0.852999	-0.061797	-0.515864	-0.049582	-6.726687	-62.398469	-2.576680
37058		0.853053	-0.061584	-0.515801	-0.049573	-6.682101	-62.389278	-2.602859
37059		0.853102	-0.061561	-0.515707	-0.049740	-6.655323	-62.377867	-2.641910
37060		0.853300	-0.061873	-0.515294	-0.050236	-6.654679	-62.327460	-2.711187
37061		0.853390	-0.062459	-0.514992	-0.051064	-6.671083	-62.295430	-2.813841
37062		0.853244	-0.062737	-0.515146	-0.051598	-6.663178	-62.321210	-2.889264
37063		0.852974	-0.062713	-0.515567	-0.051899	-6.623028	-62.379716	-2.951413
37064		0.852657	-0.062381	-0.516120	-0.052011	-6.542316	-62.453395	-3.012167
37065		0.852312	-0.061721	-0.516779	-0.051908	-6.419684	-62.538527	-3.069193
37066		0.852239	-0.061233	-0.516957	-0.051903	-6.317628	-62.560652	-3.129593
37067		0.852318	-0.060975	-0.516844	-0.052046	-6.243635	-62.545561	-3.194218
37068		0.852377	-0.060755	-0.516757	-0.052185	-6.178341	-62.534132	-3.252941
37069		0.852280	-0.060813	-0.516852	-0.052763	-6.116908	-62.551221	-3.367285
