// General information: 
//  MT Manager version: 2022.2.0 
//  XDA version: 2022.2.0 build 7381 rev 124627 built on 2023-07-19
// Device information: 
//  DeviceId: 10B414FF
//  ProductCode: MTW2-3A7G6
//  Firmware Version: 4.14.0
//  Hardware Version: 3.0.0
// Device settings: 
//  Filter Profile: human(46.1)
//  Option Flags: Orientation Smoother Disabled, Position/Velocity Smoother Disabled, Continuous Zero Rotation Update Disabled, AHS Disabled, ICC Disabled
// Coordinate system: ENU
PacketCounter	SampleTimeFine	Quat_q0	Quat_q1	Quat_q2	Quat_q3	Roll	Pitch	Yaw
34038		0.306601	0.731284	0.108102	0.599612	99.132142	-54.162875	63.901958
34039		0.306653	0.731293	0.108239	0.599549	99.136886	-54.145617	63.903725
34040		0.306688	0.731263	0.108356	0.599547	99.130652	-54.134011	63.916386
34041		0.306773	0.731209	0.108382	0.599564	99.114517	-54.126812	63.927184
34042		0.306870	0.731128	0.108369	0.599616	99.089758	-54.123447	63.942278
34043		0.307047	0.731048	0.108266	0.599641	99.061459	-54.120102	63.946343
34044		0.307119	0.730945	0.108255	0.599731	99.031282	-54.120090	63.969332
34045		0.307256	0.730852	0.108193	0.599787	99.001003	-54.117864	63.982393
34046		0.307303	0.730764	0.108233	0.599862	98.976687	-54.114953	64.005922
34047		0.307327	0.730663	0.108337	0.599954	98.950753	-54.109462	64.038417
34048		0.307364	0.730582	0.108421	0.600019	98.929565	-54.103320	64.063414
34049		0.307519	0.730514	0.108378	0.600030	98.906525	-54.096222	64.069050
34050		0.307606	0.730432	0.108388	0.600083	98.882382	-54.091919	64.086366
34051		0.307669	0.730336	0.108415	0.600162	98.855326	-54.088955	64.110200
34052		0.307802	0.730255	0.108372	0.600200	98.829172	-54.084654	64.120909
34053		0.307753	0.730163	0.108467	0.600321	98.806823	-54.086380	64.155812
34054		0.307790	0.730138	0.108499	0.600327	98.799939	-54.081528	64.162040
34055		0.307653	0.730123	0.108682	0.600383	98.803035	-54.079667	64.186376
34056		0.307605	0.730140	0.108791	0.600366	98.811424	-54.073787	64.191251
34057		0.307414	0.730155	0.109074	0.600395	98.826417	-54.066681	64.216702
34058		0.307330	0.730208	0.109255	0.600340	98.847183	-54.056083	64.218226
34059		0.307299	0.730249	0.109394	0.600280	98.862744	-54.044664	64.216778
34060		0.307273	0.730268	0.109542	0.600243	98.872211	-54.033317	64.221690
34061		0.307203	0.730294	0.109734	0.600212	98.885639	-54.021987	64.230330
34062		0.307097	0.730317	0.109948	0.600200	98.899436	-54.012284	64.243694
34063		0.306840	0.730388	0.110256	0.600188	98.931985	-54.005987	64.259465
34064		0.306493	0.730514	0.110653	0.600139	98.983618	-53.997537	64.271445
34065		0.306095	0.730690	0.111083	0.600048	99.051224	-53.988098	64.274688
34066		0.305541	0.730891	0.111657	0.599980	99.132576	-53.979644	64.290146
34067		0.304985	0.731082	0.112249	0.599920	99.211614	-53.970327	64.309460
34068		0.304532	0.731258	0.112721	0.599847	99.281680	-53.962395	64.318633
34069		0.304217	0.731358	0.113086	0.599816	99.325089	-53.955034	64.333423
34070		0.304121	0.731408	0.113213	0.599779	99.344266	-53.950241	64.333259
34071		0.304217	0.731416	0.113139	0.599735	99.342538	-53.947133	64.320202
34072		0.304344	0.731389	0.113006	0.599729	99.328918	-53.948146	64.311408
34073		0.304470	0.731340	0.112873	0.599749	99.309428	-53.950473	64.308749
34074		0.304586	0.731327	0.112745	0.599731	99.300080	-53.951355	64.297227
34075		0.304690	0.731364	0.112640	0.599653	99.305453	-53.948514	64.273702
34076		0.304693	0.731400	0.112641	0.599607	99.315458	-53.945997	64.263418
34077		0.304670	0.731444	0.112668	0.599559	99.328832	-53.943353	64.254173
34078		0.304627	0.731500	0.112697	0.599508	99.345748	-53.941729	64.243348
34079		0.304647	0.731551	0.112681	0.599439	99.358937	-53.938298	64.226874
34080		0.304656	0.731569	0.112646	0.599418	99.363057	-53.939336	64.219082
34081		0.304692	0.731579	0.112567	0.599403	99.362875	-53.942291	64.209552
34082		0.304786	0.731556	0.112448	0.599406	99.351566	-53.944961	64.202598
34083		0.305020	0.731521	0.112204	0.599375	99.330827	-53.945940	64.182199
34084		0.305209	0.731465	0.112021	0.599381	99.306912	-53.946957	64.174167
34085		0.305400	0.731395	0.111817	0.599407	99.278523	-53.950537	64.168632
34086		0.305537	0.731348	0.111693	0.599418	99.259634	-53.950956	64.165164
34087		0.305616	0.731296	0.111638	0.599452	99.242067	-53.951190	64.171151
34088		0.305681	0.731261	0.111611	0.599465	99.230630	-53.949367	64.174588
34089		0.305763	0.731247	0.111578	0.599447	99.224182	-53.945286	64.171001
34090		0.305750	0.731244	0.111691	0.599437	99.226410	-53.937037	64.179189
34091		0.305772	0.731266	0.111767	0.599384	99.233893	-53.927132	64.175911
34092		0.305740	0.731281	0.111877	0.599362	99.241296	-53.919836	64.180364
34093		0.305810	0.731301	0.111932	0.599291	99.246880	-53.907324	64.172916
34094		0.305868	0.731314	0.111967	0.599239	99.250017	-53.898026	64.167346
34095		0.306046	0.731321	0.111896	0.599153	99.246546	-53.886996	64.148834
34096		0.306142	0.731334	0.111894	0.599089	99.247971	-53.877413	64.138532
34097		0.306330	0.731394	0.111776	0.598941	99.257728	-53.866319	64.101937
34098		0.306360	0.731430	0.111839	0.598870	99.268465	-53.855981	64.093452
34099		0.306258	0.731469	0.112051	0.598836	99.286457	-53.845217	64.102067
34100		0.306224	0.731527	0.112171	0.598759	99.306188	-53.834749	64.095063
34101		0.306162	0.731600	0.112347	0.598668	99.332107	-53.821228	64.089031
34102		0.306135	0.731676	0.112465	0.598567	99.356461	-53.809313	64.076603
34103		0.306164	0.731727	0.112503	0.598483	99.370759	-53.800433	64.062629
34104		0.306261	0.731731	0.112448	0.598439	99.368423	-53.795637	64.051655
34105		0.306445	0.731732	0.112280	0.598375	99.360548	-53.792711	64.029081
34106		0.306543	0.731707	0.112199	0.598371	99.349568	-53.791828	64.024564
34107		0.306551	0.731701	0.112188	0.598376	99.347562	-53.792450	64.024985
34108		0.306602	0.731724	0.112161	0.598327	99.352130	-53.788540	64.013479
34109		0.306671	0.731739	0.112112	0.598283	99.353424	-53.785513	64.001909
34110		0.306733	0.731749	0.112102	0.598241	99.354645	-53.779900	63.994220
34111		0.306726	0.731746	0.112136	0.598242	99.354775	-53.777809	63.997527
34112		0.306800	0.731741	0.112037	0.598228	99.349546	-53.779589	63.987934
34113		0.306814	0.731703	0.111975	0.598279	99.337156	-53.785755	63.994008
34114		0.306865	0.731676	0.111863	0.598307	99.325971	-53.792140	63.991513
34115		0.306872	0.731637	0.111786	0.598365	99.313283	-53.800363	63.997382
34116		0.306907	0.731634	0.111740	0.598360	99.310377	-53.801199	63.993255
34117		0.306932	0.731598	0.111692	0.598400	99.298834	-53.805044	63.998692
34118		0.307035	0.731591	0.111631	0.598366	99.293410	-53.800887	63.989838
34119		0.307214	0.731600	0.111487	0.598291	99.288367	-53.795912	63.966777
34120		0.307344	0.731585	0.111382	0.598262	99.279016	-53.793535	63.955839
34121		0.307631	0.731583	0.111085	0.598171	99.265211	-53.791985	63.919160
34122		0.307809	0.731526	0.110842	0.598195	99.239638	-53.799415	63.908801
34123		0.308231	0.731445	0.110336	0.598170	99.196358	-53.807656	63.872501
34124		0.308594	0.731308	0.109884	0.598234	99.140158	-53.820085	63.859108
34125		0.308762	0.731147	0.109649	0.598387	99.086691	-53.833637	63.878559
34126		0.309052	0.731037	0.109262	0.598443	99.040936	-53.845814	63.866450
34127		0.309065	0.730921	0.109165	0.598595	99.006459	-53.859588	63.892167
34128		0.309116	0.730886	0.109016	0.598639	98.992049	-53.869568	63.889827
34129		0.309190	0.730889	0.108839	0.598629	98.987105	-53.877537	63.873500
34130		0.309132	0.730875	0.108777	0.598688	98.982846	-53.889182	63.878086
34131		0.309196	0.730852	0.108603	0.598714	98.971088	-53.899391	63.869712
34132		0.309271	0.730781	0.108428	0.598793	98.945901	-53.911366	63.873985
34133		0.309538	0.730686	0.108081	0.598834	98.905898	-53.921358	63.861595
34134		0.309895	0.730543	0.107660	0.598900	98.849030	-53.931896	63.851850
34135		0.310417	0.730408	0.107088	0.598897	98.787554	-53.939365	63.819449
34136		0.310809	0.730279	0.106627	0.598933	98.733113	-53.949209	63.800868
34137		0.310950	0.730148	0.106389	0.599062	98.688551	-53.963653	63.813440
34138		0.311216	0.730063	0.106005	0.599095	98.650655	-53.976278	63.795919
34139		0.311269	0.729979	0.105861	0.599196	98.622818	-53.988455	63.807413
34140		0.311492	0.729919	0.105580	0.599202	98.595396	-53.994827	63.791658
34141		0.311741	0.729831	0.105294	0.599231	98.559290	-54.000802	63.781948
34142		0.312203	0.729717	0.104862	0.599205	98.508585	-54.000672	63.755607
34143		0.312835	0.729581	0.104273	0.599143	98.444899	-53.998965	63.713913
34144		0.313396	0.729435	0.103739	0.599121	98.381166	-53.999963	63.683280
34145		0.313954	0.729315	0.103154	0.599076	98.323531	-54.004130	63.642499
34146		0.314384	0.729199	0.102607	0.599086	98.270587	-54.016766	63.611757
34147		0.314764	0.729080	0.102064	0.599124	98.217949	-54.033984	63.585747
34148		0.315034	0.728973	0.101651	0.599181	98.173876	-54.049756	63.571718
34149		0.315237	0.728872	0.101268	0.599263	98.133146	-54.069036	63.562858
34150		0.315461	0.728779	0.100952	0.599311	98.096195	-54.080079	63.553804
34151		0.315669	0.728719	0.100703	0.599317	98.069766	-54.085101	63.541077
34152		0.315800	0.728707	0.100605	0.599279	98.061948	-54.081779	63.528995
34153		0.315745	0.728709	0.100738	0.599283	98.066460	-54.075508	63.540272
34154		0.315784	0.728769	0.100805	0.599178	98.083938	-54.062642	63.524598
34155		0.315481	0.728780	0.101245	0.599250	98.102778	-54.053033	63.569351
34156		0.315483	0.728849	0.101380	0.599142	98.124917	-54.037432	63.557878
34157		0.315399	0.728834	0.101607	0.599166	98.127540	-54.026847	63.581515
34158		0.315415	0.728845	0.101734	0.599124	98.133193	-54.013922	63.584793
34159		0.315475	0.728859	0.101855	0.599054	98.138759	-53.996983	63.583638
34160		0.315514	0.728850	0.102015	0.599018	98.139275	-53.980145	63.592700
34161		0.315688	0.728847	0.102073	0.598920	98.136525	-53.958876	63.584313
34162		0.315764	0.728830	0.102249	0.598869	98.134717	-53.937468	63.593623
34163		0.316154	0.728845	0.102132	0.598666	98.128707	-53.909775	63.554358
34164		0.316281	0.728804	0.102212	0.598635	98.116925	-53.893112	63.561230
34165		0.316248	0.728709	0.102462	0.598725	98.097222	-53.880140	63.604704
34166		0.316420	0.728639	0.102417	0.598727	98.073828	-53.871679	63.608970
34167		0.316953	0.728581	0.102006	0.598586	98.038542	-53.859662	63.562035
34168		0.317187	0.728487	0.101834	0.598606	98.004192	-53.857484	63.561324
34169		0.317222	0.728373	0.101861	0.598722	97.972758	-53.858278	63.592042
34170		0.317303	0.728334	0.101826	0.598732	97.959937	-53.855689	63.594759
34171		0.317388	0.728346	0.101778	0.598681	97.960404	-53.851099	63.582509
34172		0.317338	0.728365	0.101835	0.598675	97.967842	-53.849920	63.584215
34173		0.317439	0.728390	0.101766	0.598602	97.971295	-53.844803	63.565816
34174		0.317382	0.728413	0.101830	0.598593	97.980272	-53.843472	63.567218
34175		0.317703	0.728461	0.101536	0.598414	97.980826	-53.835483	63.513191
34176		0.317782	0.728439	0.101500	0.598406	97.972335	-53.832398	63.511583
34177		0.317977	0.728430	0.101369	0.598334	97.963397	-53.825561	63.491951
34178		0.318065	0.728438	0.101352	0.598281	97.963642	-53.818246	63.482251
34179		0.318116	0.728456	0.101378	0.598228	97.968064	-53.810132	63.475236
34180		0.318203	0.728507	0.101356	0.598123	97.980030	-53.800935	63.453342
34181		0.318512	0.728568	0.101110	0.597926	97.985434	-53.789265	63.399376
34182		0.318636	0.728612	0.101112	0.597806	97.995373	-53.774870	63.378086
34183		0.318874	0.728677	0.101006	0.597617	98.006530	-53.757661	63.336327
34184		0.318970	0.728732	0.101075	0.597487	98.021454	-53.739556	63.318047
34185		0.319157	0.728813	0.101062	0.597291	98.039847	-53.718381	63.281237
34186		0.319189	0.728880	0.101235	0.597163	98.061589	-53.696773	63.270587
34187		0.319122	0.728946	0.101500	0.597073	98.087087	-53.676568	63.272682
34188		0.319128	0.729006	0.101659	0.596970	98.107141	-53.659051	63.264926
34189		0.319040	0.729039	0.101893	0.596937	98.122997	-53.645504	63.276225
34190		0.319135	0.729058	0.101928	0.596857	98.127257	-53.632406	63.266047
34191		0.319397	0.729098	0.101798	0.596689	98.130553	-53.616309	63.227893
34192		0.319512	0.729098	0.101820	0.596624	98.128981	-53.603502	63.220751
34193		0.319350	0.729057	0.102134	0.596708	98.127916	-53.594314	63.262498
34194		0.319259	0.729083	0.102380	0.596683	98.142376	-53.580397	63.276387
34195		0.318992	0.729155	0.102802	0.596664	98.177014	-53.565470	63.300622
34196		0.318564	0.729277	0.103331	0.596653	98.230562	-53.553878	63.329113
34197		0.318070	0.729419	0.103949	0.596636	98.293042	-53.539691	63.361933
34198		0.317605	0.729555	0.104566	0.596609	98.353512	-53.523094	63.394096
34199		0.317190	0.729663	0.105171	0.596592	98.405250	-53.504507	63.429524
34200		0.316962	0.729742	0.105645	0.596532	98.442538	-53.480929	63.451607
34201		0.316625	0.729746	0.106249	0.596599	98.464383	-53.460785	63.510074
34202		0.316537	0.729763	0.106610	0.596561	98.479402	-53.437201	63.532592
34203		0.316143	0.729683	0.107247	0.596753	98.480754	-53.424302	63.619594
34204		0.316217	0.729603	0.107392	0.596786	98.460990	-53.409369	63.644784
34205		0.315950	0.729462	0.107876	0.597013	98.439525	-53.401121	63.730672
34206		0.315908	0.729399	0.108064	0.597078	98.427830	-53.392452	63.761756
34207		0.315835	0.729375	0.108292	0.597104	98.428488	-53.381086	63.786587
34208		0.315724	0.729353	0.108574	0.597138	98.431729	-53.368641	63.816606
34209		0.315418	0.729287	0.109067	0.597290	98.431920	-53.358810	63.884890
34210		0.315364	0.729253	0.109320	0.597314	98.430048	-53.344110	63.912527
34211		0.315334	0.729210	0.109559	0.597340	98.424784	-53.328835	63.940268
34212		0.315438	0.729131	0.109651	0.597363	98.403852	-53.315397	63.959441
34213		0.315568	0.729021	0.109666	0.597427	98.371899	-53.308044	63.981085
34214		0.315749	0.728917	0.109564	0.597476	98.337738	-53.305466	63.990679
34215		0.316178	0.728855	0.109173	0.597397	98.302777	-53.301833	63.954630
34216		0.316346	0.728772	0.109031	0.597435	98.273671	-53.302823	63.956996
34217		0.316566	0.728725	0.108865	0.597407	98.252526	-53.298924	63.944571
34218		0.316587	0.728708	0.108918	0.597405	98.249015	-53.293179	63.950560
34219		0.316661	0.728737	0.108950	0.597327	98.256099	-53.281929	63.939271
34220		0.316560	0.728800	0.109183	0.597260	98.281242	-53.267852	63.942260
34221		0.316311	0.728881	0.109585	0.597219	98.318004	-53.252285	63.960875
34222		0.316137	0.728981	0.109843	0.597143	98.354820	-53.240983	63.960895
34223		0.316029	0.729058	0.110010	0.597075	98.382029	-53.232469	63.956994
34224		0.316040	0.729097	0.110034	0.597017	98.393018	-53.227185	63.946887
34225		0.316227	0.729087	0.109868	0.596960	98.382707	-53.224345	63.926471
34226		0.316445	0.729039	0.109676	0.596939	98.360681	-53.222883	63.912997
34227		0.316591	0.728952	0.109607	0.596980	98.332658	-53.219842	63.922281
34228		0.316715	0.728932	0.109540	0.596952	98.323069	-53.214997	63.915155
34229		0.316396	0.728905	0.109971	0.597074	98.332846	-53.209594	63.969866
34230		0.316262	0.728988	0.110179	0.597006	98.362937	-53.199777	63.968799
34231		0.316089	0.729055	0.110459	0.596964	98.391595	-53.188298	63.978718
34232		0.315984	0.729120	0.110654	0.596904	98.416221	-53.177823	63.979481
34233		0.315799	0.729138	0.110921	0.596930	98.431556	-53.171340	64.002894
34234		0.315916	0.729136	0.110905	0.596873	98.428403	-53.161717	63.994078
34235		0.316463	0.729167	0.110451	0.596630	98.414800	-53.147188	63.920381
34236		0.316664	0.729136	0.110317	0.596586	98.399192	-53.141280	63.906730
34237		0.316520	0.729046	0.110495	0.596739	98.382120	-53.144720	63.951758
34238		0.316718	0.729017	0.110323	0.596702	98.366121	-53.142408	63.935741
34239		0.316937	0.729003	0.110147	0.596635	98.353794	-53.137508	63.913679
34240		0.316992	0.729016	0.110137	0.596592	98.355960	-53.132489	63.905617
34241		0.317216	0.729100	0.109942	0.596406	98.369548	-53.123257	63.855255
34242		0.317190	0.729140	0.110003	0.596360	98.382281	-53.118203	63.849870
34243		0.316993	0.729135	0.110242	0.596426	98.390927	-53.116632	63.878817
34244		0.316983	0.729151	0.110307	0.596400	98.397027	-53.111109	63.878887
34245		0.316821	0.729107	0.110517	0.596501	98.393429	-53.110778	63.914607
34246		0.316823	0.729073	0.110535	0.596539	98.384649	-53.111012	63.924772
34247		0.316975	0.729078	0.110416	0.596474	98.380155	-53.106576	63.905618
34248		0.317005	0.729013	0.110369	0.596546	98.360740	-53.111416	63.918625
34249		0.317010	0.728947	0.110324	0.596631	98.341886	-53.118467	63.933558
34250		0.317002	0.728911	0.110258	0.596692	98.330537	-53.126922	63.940350
34251		0.316965	0.728897	0.110183	0.596743	98.325516	-53.137708	63.942666
34252		0.316929	0.728898	0.110113	0.596773	98.324702	-53.147124	63.940994
34253		0.317041	0.728940	0.109880	0.596705	98.328067	-53.154245	63.908218
34254		0.317029	0.728942	0.109817	0.596722	98.327007	-53.160664	63.905185
34255		0.317038	0.728957	0.109781	0.596705	98.330074	-53.162077	63.898244
34256		0.316985	0.728976	0.109784	0.596709	98.336317	-53.165768	63.897076
34257		0.316952	0.728992	0.109787	0.596707	98.341270	-53.167756	63.895363
34258		0.316824	0.729006	0.109852	0.596746	98.348979	-53.173600	63.904571
34259		0.316553	0.728993	0.110016	0.596876	98.354721	-53.185956	63.937140
34260		0.316406	0.728973	0.109978	0.596984	98.351301	-53.204262	63.950884
34261		0.316209	0.728909	0.109998	0.597163	98.337974	-53.224787	63.984062
34262		0.316212	0.728851	0.109829	0.597264	98.317937	-53.242384	63.990142
34263		0.315887	0.728740	0.109989	0.597541	98.297960	-53.265583	64.053179
34264		0.315877	0.728711	0.109884	0.597601	98.287695	-53.277159	64.055866
34265		0.315554	0.728654	0.110131	0.597796	98.284333	-53.289679	64.109117
34266		0.315471	0.728669	0.110165	0.597815	98.290848	-53.293780	64.112925
34267		0.315471	0.728695	0.110112	0.597793	98.296583	-53.296921	64.102750
34268		0.315425	0.728688	0.110119	0.597825	98.295830	-53.301118	64.108265
34269		0.315428	0.728644	0.110059	0.597888	98.282145	-53.308469	64.116955
34270		0.315459	0.728598	0.109979	0.597942	98.267135	-53.314868	64.122677
34271		0.315527	0.728518	0.109891	0.598020	98.241802	-53.320574	64.134858
34272		0.315649	0.728433	0.109763	0.598082	98.213224	-53.324652	64.142021
34273		0.315861	0.728348	0.109588	0.598106	98.181701	-53.324422	64.140069
34274		0.316007	0.728293	0.109510	0.598111	98.162089	-53.320387	64.140174
34275		0.316028	0.728274	0.109600	0.598107	98.158753	-53.311642	64.149054
34276		0.316017	0.728326	0.109729	0.598025	98.176579	-53.298699	64.142668
34277		0.316068	0.728380	0.109764	0.597926	98.191137	-53.287797	64.126134
34278		0.316058	0.728445	0.109839	0.597838	98.210979	-53.278726	64.113089
34279		0.316055	0.728481	0.109901	0.597785	98.222171	-53.271644	64.107162
34280		0.316152	0.728497	0.109814	0.597730	98.222513	-53.269081	64.090886
34281		0.316188	0.728480	0.109767	0.597741	98.216073	-53.270727	64.090159
34282		0.316362	0.728456	0.109586	0.597710	98.201827	-53.271004	64.073754
34283		0.316831	0.728470	0.109143	0.597525	98.185673	-53.263888	64.010734
34284		0.317070	0.728409	0.108945	0.597510	98.159655	-53.261741	63.998894
34285		0.317328	0.728344	0.108748	0.597487	98.132326	-53.257776	63.986664
34286		0.317500	0.728281	0.108634	0.597495	98.109024	-53.254960	63.985103
34287		0.317709	0.728238	0.108501	0.597460	98.090223	-53.248881	63.973964
34288		0.317800	0.728229	0.108470	0.597427	98.085445	-53.243380	63.967966
34289		0.317930	0.728251	0.108418	0.597341	98.087600	-53.234268	63.949623
34290		0.318002	0.728267	0.108415	0.597283	98.090733	-53.226769	63.939575
34291		0.318285	0.728311	0.108223	0.597115	98.092408	-53.214090	63.896155
34292		0.318426	0.728294	0.108171	0.597070	98.084028	-53.206183	63.887472
34293		0.318656	0.728252	0.108045	0.597021	98.065213	-53.197440	63.874973
34294		0.318914	0.728194	0.107930	0.596975	98.042044	-53.186119	63.865330
34295		0.319072	0.728151	0.107873	0.596952	98.026197	-53.178333	63.862132
34296		0.319139	0.728165	0.107923	0.596891	98.030004	-53.166952	63.856343
34297		0.319152	0.728228	0.107990	0.596795	98.048460	-53.156429	63.841999
34298		0.319056	0.728331	0.108143	0.596694	98.081881	-53.146646	63.829582
34299		0.318929	0.728457	0.108304	0.596578	98.122334	-53.137759	63.813483
34300		0.318756	0.728612	0.108503	0.596445	98.172622	-53.128372	63.794957
34301		0.318645	0.728765	0.108628	0.596294	98.219172	-53.119494	63.768296
34302		0.318544	0.728933	0.108727	0.596124	98.269029	-53.111066	63.735320
34303		0.318514	0.729124	0.108696	0.595913	98.320274	-53.105842	63.683687
34304		0.318402	0.729312	0.108725	0.595738	98.373892	-53.103434	63.642126
34305		0.318367	0.729503	0.108642	0.595538	98.424027	-53.103092	63.587855
34306		0.318279	0.729668	0.108590	0.595392	98.469096	-53.106522	63.546029
34307		0.318107	0.729847	0.108604	0.595262	98.521052	-53.111436	63.510419
34308		0.317930	0.730008	0.108597	0.595160	98.567918	-53.119635	63.478733
34309		0.317718	0.730162	0.108616	0.595082	98.613924	-53.129432	63.453220
34310		0.317465	0.730283	0.108636	0.595064	98.652041	-53.144774	63.439555
34311		0.317233	0.730415	0.108593	0.595033	98.691422	-53.162976	63.417448
34312		0.316924	0.730498	0.108610	0.595093	98.720172	-53.186066	63.418049
34313		0.316415	0.730502	0.108821	0.595321	98.736261	-53.216154	63.465739
34314		0.316189	0.730529	0.108739	0.595423	98.745984	-53.243238	63.469943
34315		0.316063	0.730540	0.108597	0.595502	98.748058	-53.266759	63.467635
34316		0.315954	0.730512	0.108484	0.595614	98.740001	-53.288449	63.476506
34317		0.315967	0.730525	0.108247	0.595634	98.737470	-53.306848	63.458396
34318		0.315844	0.730492	0.108173	0.595754	98.729092	-53.326859	63.472035
34319		0.315819	0.730497	0.108030	0.595787	98.727451	-53.341244	63.464277
34320		0.315610	0.730487	0.108066	0.595904	98.729616	-53.358576	63.484224
34321		0.315452	0.730467	0.108042	0.596015	98.726822	-53.376703	63.499471
34322		0.315226	0.730432	0.108082	0.596172	98.722541	-53.396896	63.527774
34323		0.314848	0.730328	0.108317	0.596456	98.707399	-53.418527	63.596992
34324		0.314751	0.730245	0.108309	0.596610	98.686517	-53.433127	63.626351
34325		0.314780	0.730146	0.108267	0.596723	98.657989	-53.439577	63.649043
34326		0.314824	0.730045	0.108293	0.596818	98.630354	-53.438884	63.675031
34327		0.314870	0.729967	0.108343	0.596881	98.609410	-53.434696	63.696122
34328		0.314842	0.729910	0.108500	0.596937	98.598172	-53.427093	63.722921
34329		0.314732	0.729875	0.108746	0.596993	98.596835	-53.418388	63.754529
34330		0.314635	0.729859	0.109004	0.597017	98.600742	-53.406373	63.780721
34331		0.314345	0.729790	0.109480	0.597167	98.599526	-53.396735	63.847670
34332		0.314320	0.729759	0.109702	0.597177	98.597167	-53.381670	63.870543
34333		0.314323	0.729720	0.109965	0.597175	98.592963	-53.360987	63.896119
34334		0.314469	0.729682	0.110128	0.597114	98.583937	-53.335234	63.905300
34335		0.314328	0.729612	0.110597	0.597187	98.579695	-53.312097	63.961020
34336		0.314476	0.729630	0.110776	0.597054	98.586156	-53.281663	63.955740
34337		0.314304	0.729636	0.111253	0.597048	98.603484	-53.256490	63.993095
34338		0.314383	0.729700	0.111449	0.596892	98.624324	-53.228479	63.980958
34339		0.314451	0.729787	0.111604	0.596720	98.650600	-53.203713	63.960987
34340		0.314492	0.729852	0.111762	0.596591	98.671280	-53.182589	63.949358
34341		0.314265	0.729896	0.112162	0.596581	98.697953	-53.167038	63.976044
34342		0.314245	0.729967	0.112372	0.596465	98.723047	-53.146805	63.969805
34343		0.314058	0.730030	0.112714	0.596423	98.752405	-53.131565	63.985362
34344		0.314042	0.730091	0.112925	0.596316	98.774740	-53.111342	63.981585
34345		0.314148	0.730156	0.113029	0.596161	98.792792	-53.088658	63.962237
34346		0.314148	0.730207	0.113211	0.596063	98.811480	-53.069961	63.958277
34347		0.314022	0.730240	0.113513	0.596032	98.830567	-53.053953	63.975438
34348		0.314009	0.730292	0.113657	0.595948	98.848596	-53.039778	63.970226
34349		0.313803	0.730310	0.113947	0.595979	98.865085	-53.033318	63.996224
34350		0.313814	0.730355	0.113985	0.595911	98.877992	-53.026385	63.985363
34351		0.313918	0.730412	0.113931	0.595797	98.889807	-53.017974	63.959451
34352		0.313955	0.730449	0.113933	0.595732	98.899111	-53.012235	63.946844
34353		0.313783	0.730454	0.114124	0.595779	98.909046	-53.011627	63.968212
34354		0.313784	0.730491	0.114156	0.595727	98.919819	-53.006742	63.959934
34355		0.313987	0.730587	0.114010	0.595530	98.937763	-52.994539	63.911125
34356		0.313918	0.730636	0.114116	0.595487	98.955085	-52.989144	63.908665
34357		0.313656	0.730656	0.114401	0.595546	98.973080	-52.988282	63.937949
34358		0.313542	0.730702	0.114530	0.595524	98.991253	-52.985315	63.940611
34359		0.313439	0.730723	0.114582	0.595543	99.000164	-52.989381	63.945277
34360		0.313377	0.730718	0.114581	0.595581	99.000089	-52.995672	63.950912
34361		0.313130	0.730627	0.114714	0.595797	98.983985	-53.012822	64.000737
34362		0.313166	0.730559	0.114576	0.595889	98.961182	-53.025209	64.009169
34363		0.313029	0.730464	0.114602	0.596071	98.939086	-53.041384	64.046097
34364		0.313057	0.730414	0.114538	0.596130	98.923459	-53.047110	64.054089
34365		0.312799	0.730357	0.114727	0.596300	98.917969	-53.058615	64.098750
34366		0.312711	0.730374	0.114814	0.596308	98.926568	-53.058451	64.105227
34367		0.312455	0.730376	0.115018	0.596401	98.937486	-53.065011	64.134370
34368		0.312413	0.730380	0.115015	0.596418	98.939522	-53.068956	64.135973
34369		0.312473	0.730347	0.114889	0.596451	98.926060	-53.076088	64.133700
34370		0.312551	0.730275	0.114729	0.596529	98.900856	-53.086551	64.138862
34371		0.312607	0.730173	0.114595	0.596651	98.868660	-53.098635	64.155264
34372		0.312739	0.730063	0.114432	0.596747	98.832044	-53.106413	64.166822
34373		0.312939	0.729990	0.114223	0.596772	98.802966	-53.109602	64.160753
34374		0.312991	0.729920	0.114177	0.596840	98.781602	-53.112676	64.173788
34375		0.312880	0.729803	0.114349	0.597008	98.756670	-53.114974	64.223227
34376		0.313027	0.729733	0.114272	0.597030	98.733007	-53.111527	64.227403
34377		0.313026	0.729620	0.114315	0.597161	98.703619	-53.114278	64.260671
34378		0.313401	0.729510	0.113963	0.597166	98.657241	-53.115282	64.244351
34379		0.314158	0.729409	0.113242	0.597029	98.596419	-53.111452	64.177302
34380		0.314686	0.729215	0.112718	0.597086	98.520164	-53.117419	64.162984
34381		0.315205	0.728973	0.112238	0.597198	98.432379	-53.123168	64.164735
34382		0.315719	0.728730	0.111773	0.597311	98.344769	-53.128152	64.168011
34383		0.316133	0.728579	0.111444	0.597338	98.287525	-53.125701	64.160853
34384		0.316134	0.728509	0.111503	0.597411	98.270339	-53.124312	64.183028
34385		0.316159	0.728551	0.111544	0.597340	98.282197	-53.116104	64.172158
34386		0.315945	0.728566	0.111814	0.597384	98.297234	-53.112333	64.198688
34387		0.315726	0.728569	0.112060	0.597451	98.308625	-53.111711	64.227551
34388		0.315673	0.728531	0.112093	0.597519	98.300092	-53.115966	64.243692
34389		0.315416	0.728420	0.112302	0.597750	98.280456	-53.128423	64.304204
34390		0.315583	0.728295	0.112065	0.597859	98.237234	-53.140007	64.313126
34391		0.316045	0.728230	0.111514	0.597797	98.196576	-53.147338	64.266648
34392		0.316095	0.728151	0.111363	0.597895	98.170440	-53.159988	64.275965
34393		0.315814	0.728105	0.111531	0.598068	98.167465	-53.174675	64.318563
34394		0.315680	0.728121	0.111573	0.598111	98.175427	-53.182909	64.326232
34395		0.315564	0.728191	0.111606	0.598081	98.197389	-53.187150	64.317307
34396		0.315405	0.728244	0.111704	0.598083	98.217175	-53.190912	64.319994
34397		0.315248	0.728267	0.111784	0.598122	98.228493	-53.197542	64.329492
34398		0.315232	0.728277	0.111698	0.598134	98.229268	-53.205933	64.323069
34399		0.315288	0.728247	0.111524	0.598174	98.215426	-53.217398	64.317626
34400		0.315360	0.728212	0.111306	0.598219	98.198941	-53.231272	64.309823
34401		0.315346	0.728168	0.111176	0.598304	98.183713	-53.246228	64.315727
34402		0.315433	0.728139	0.111003	0.598326	98.169720	-53.254499	64.307748
34403		0.315620	0.728139	0.110780	0.598268	98.160513	-53.256019	64.281572
34404		0.315631	0.728156	0.110799	0.598239	98.165396	-53.252417	64.277259
34405		0.315476	0.728172	0.110995	0.598265	98.177575	-53.249298	64.295223
34406		0.315399	0.728240	0.111168	0.598190	98.202161	-53.237884	64.291585
34407		0.315296	0.728267	0.111340	0.598180	98.215747	-53.231352	64.301357
34408		0.315228	0.728302	0.111478	0.598147	98.230279	-53.223976	64.304353
34409		0.314941	0.728272	0.111809	0.598273	98.236018	-53.224265	64.351972
34410		0.314896	0.728265	0.111884	0.598292	98.236881	-53.222467	64.361400
34411		0.314931	0.728249	0.111889	0.598292	98.232100	-53.219591	64.363424
34412		0.314974	0.728218	0.111914	0.598301	98.223698	-53.215036	64.370009
34413		0.315145	0.728225	0.111814	0.598222	98.219686	-53.207038	64.350251
34414		0.315177	0.728208	0.111837	0.598221	98.215200	-53.202957	64.353804
34415		0.315149	0.728207	0.111915	0.598222	98.217586	-53.198869	64.360313
34416		0.315142	0.728228	0.111965	0.598192	98.224559	-53.194219	64.358014
34417		0.315333	0.728290	0.111794	0.598048	98.233237	-53.187468	64.317758
34418		0.315365	0.728286	0.111762	0.598041	98.230816	-53.187262	64.314611
34419		0.315507	0.728267	0.111609	0.598018	98.218967	-53.188112	64.300965
34420		0.315564	0.728236	0.111581	0.598032	98.208719	-53.186942	64.303860
34421		0.315411	0.728201	0.111736	0.598126	98.206313	-53.189963	64.333022
34422		0.315406	0.728198	0.111749	0.598129	98.205988	-53.189341	64.334905
34423		0.315481	0.728196	0.111713	0.598099	98.203006	-53.185464	64.328087
34424		0.315395	0.728198	0.111818	0.598122	98.208058	-53.184475	64.339408
34425		0.315251	0.728198	0.111954	0.598173	98.214119	-53.186466	64.357665
34426		0.315135	0.728183	0.112044	0.598236	98.214545	-53.190488	64.375353
34427		0.315219	0.728178	0.111903	0.598223	98.208101	-53.194959	64.362538
34428		0.315175	0.728127	0.111884	0.598312	98.194618	-53.203536	64.378641
34429		0.315050	0.728012	0.111943	0.598507	98.167241	-53.216658	64.422603
34430		0.315182	0.727907	0.111795	0.598593	98.132466	-53.222676	64.433390
34431		0.315469	0.727834	0.111498	0.598586	98.099536	-53.225129	64.416034
34432		0.315526	0.727774	0.111435	0.598641	98.080443	-53.228444	64.424927
34433		0.315673	0.727759	0.111325	0.598603	98.070778	-53.224909	64.412268
34434		0.315613	0.727739	0.111417	0.598641	98.068893	-53.223705	64.427127
34435		0.315669	0.727738	0.111391	0.598616	98.067136	-53.220587	64.421685
34436		0.315594	0.727700	0.111500	0.598683	98.060974	-53.220477	64.443796
34437		0.315553	0.727639	0.111547	0.598769	98.046551	-53.223597	64.465935
34438		0.315644	0.727531	0.111475	0.598866	98.013557	-53.227134	64.484977
34439		0.315998	0.727451	0.111133	0.598840	97.976549	-53.227430	64.461912
34440		0.316150	0.727356	0.110999	0.598900	97.944529	-53.229801	64.469289
34441		0.316124	0.727272	0.111064	0.599004	97.923840	-53.231243	64.497914
34442		0.316109	0.727255	0.111147	0.599017	97.921775	-53.226393	64.508312
34443		0.316023	0.727276	0.111321	0.599005	97.933580	-53.218423	64.518442
34444		0.315913	0.727322	0.111503	0.598973	97.952963	-53.210621	64.523991
34445		0.315653	0.727329	0.111805	0.599045	97.967634	-53.208762	64.557791
34446		0.315565	0.727340	0.111962	0.599049	97.976396	-53.202939	64.569786
34447		0.315421	0.727341	0.112098	0.599097	97.983037	-53.204698	64.587459
34448		0.315405	0.727352	0.112110	0.599090	97.986625	-53.204549	64.586301
34449		0.315402	0.727327	0.112126	0.599120	97.980207	-53.204950	64.594350
34450		0.315521	0.727315	0.112035	0.599088	97.972492	-53.202148	64.583756
34451		0.315581	0.727297	0.112010	0.599084	97.965812	-53.199641	64.582975
34452		0.315617	0.727327	0.111982	0.599033	97.972521	-53.196968	64.570601
34453		0.315409	0.727360	0.112210	0.599060	97.991442	-53.195221	64.589329
34454		0.315284	0.727449	0.112342	0.598993	98.021291	-53.190753	64.581417
34455		0.315039	0.727539	0.112583	0.598968	98.056576	-53.188313	64.588039
34456		0.314873	0.727630	0.112715	0.598919	98.087810	-53.187626	64.582446
34457		0.314736	0.727700	0.112801	0.598891	98.111355	-53.189409	64.578249
34458		0.314712	0.727722	0.112759	0.598884	98.116675	-53.194108	64.571602
34459		0.314566	0.727670	0.112799	0.599017	98.106385	-53.207286	64.598690
34460		0.314636	0.727644	0.112634	0.599042	98.093611	-53.216364	64.591592
34461		0.314759	0.727629	0.112440	0.599033	98.082048	-53.222265	64.576157
34462		0.314722	0.727637	0.112385	0.599053	98.083370	-53.230086	64.573562
34463		0.314532	0.727645	0.112483	0.599124	98.091678	-53.239127	64.590618
34464		0.314374	0.727675	0.112561	0.599156	98.104664	-53.245706	64.598344
34465		0.314043	0.727686	0.112799	0.599271	98.120126	-53.255917	64.632485
34466		0.313882	0.727704	0.112871	0.599321	98.129750	-53.264058	64.643447
34467		0.313779	0.727701	0.112885	0.599375	98.131408	-53.272696	64.652314
34468		0.313712	0.727677	0.112848	0.599446	98.125075	-53.283498	64.661743
34469		0.313789	0.727662	0.112665	0.599459	98.114654	-53.292874	64.650227
34470		0.313823	0.727615	0.112524	0.599525	98.097249	-53.304313	64.653106
34471		0.314017	0.727602	0.112201	0.599499	98.081627	-53.314603	64.624632
34472		0.314082	0.727536	0.112025	0.599578	98.057871	-53.327230	64.628209
34473		0.314273	0.727515	0.111723	0.599560	98.040565	-53.336385	64.603427
34474		0.314201	0.727494	0.111663	0.599634	98.034468	-53.349500	64.611184
34475		0.313970	0.727457	0.111728	0.599788	98.030411	-53.367750	64.641725
34476		0.313906	0.727411	0.111671	0.599889	98.017310	-53.381309	64.656133
34477		0.313763	0.727313	0.111684	0.600080	97.993619	-53.399034	64.694170
34478		0.313800	0.727214	0.111587	0.600198	97.963384	-53.409173	64.713342
34479		0.313844	0.727096	0.111525	0.600329	97.928837	-53.416669	64.739113
34480		0.313820	0.727012	0.111526	0.600444	97.906422	-53.423454	64.763980
34481		0.313794	0.726964	0.111525	0.600515	97.893847	-53.428608	64.779030
34482		0.313712	0.726914	0.111551	0.600614	97.882253	-53.436723	64.800376
34483		0.313480	0.726826	0.111697	0.600815	97.866353	-53.450852	64.849576
34484		0.313489	0.726751	0.111643	0.600911	97.844259	-53.458691	64.866662
34485		0.313525	0.726698	0.111523	0.600978	97.826088	-53.468369	64.871785
34486		0.313587	0.726613	0.111394	0.601072	97.798256	-53.478158	64.883673
34487		0.313997	0.726635	0.111003	0.600904	97.786476	-53.472009	64.825993
34488		0.313995	0.726617	0.111026	0.600923	97.782215	-53.471196	64.832430
34489		0.313777	0.726607	0.111269	0.601003	97.789962	-53.471314	64.864428
34490		0.313673	0.726642	0.111423	0.600987	97.805404	-53.466013	64.870957
34491		0.313417	0.726629	0.111707	0.601083	97.814229	-53.466419	64.908808
34492		0.313377	0.726626	0.111736	0.601103	97.814719	-53.467858	64.914337
34493		0.313349	0.726588	0.111781	0.601155	97.806332	-53.468644	64.929085
34494		0.313392	0.726557	0.111707	0.601183	97.795059	-53.472607	64.930461
34495		0.313426	0.726556	0.111613	0.601185	97.791478	-53.477515	64.923230
34496		0.313438	0.726557	0.111559	0.601187	97.790220	-53.481087	64.918954
34497		0.313235	0.726543	0.111745	0.601275	97.794949	-53.484862	64.948038
34498		0.313202	0.726585	0.111792	0.601233	97.808370	-53.481697	64.941362
34499		0.312869	0.726598	0.112144	0.601325	97.827313	-53.482039	64.981516
34500		0.312835	0.726662	0.112196	0.601256	97.846856	-53.477359	64.969177
34501		0.313060	0.726730	0.112000	0.601093	97.855916	-53.469432	64.923377
34502		0.313055	0.726769	0.111994	0.601049	97.866607	-53.468257	64.912499
34503		0.313093	0.726786	0.111885	0.601029	97.867587	-53.473249	64.899082
34504		0.313140	0.726781	0.111770	0.601033	97.862108	-53.478964	64.890858
34505		0.312971	0.726700	0.111854	0.601203	97.845322	-53.492081	64.930182
34506		0.313037	0.726676	0.111741	0.601218	97.834701	-53.496836	64.925638
34507		0.313031	0.726621	0.111724	0.601291	97.819261	-53.501754	64.940281
34508		0.313087	0.726611	0.111686	0.601281	97.814519	-53.500318	64.936833
34509		0.312952	0.726598	0.111809	0.601345	97.816563	-53.503222	64.957279
34510		0.312895	0.726618	0.111843	0.601344	97.824041	-53.504577	64.957725
34511		0.312907	0.726648	0.111809	0.601307	97.831098	-53.504697	64.946641
34512		0.312814	0.726683	0.111841	0.601308	97.843026	-53.508901	64.945799
34513		0.312977	0.726738	0.111633	0.601195	97.849412	-53.508545	64.907266
34514		0.312991	0.726716	0.111550	0.601229	97.841083	-53.515525	64.907634
34515		0.313169	0.726697	0.111333	0.601200	97.826907	-53.518501	64.887850
34516		0.313252	0.726642	0.111178	0.601252	97.806187	-53.526925	64.888465
34517		0.313339	0.726605	0.111018	0.601281	97.790009	-53.534471	64.883708
34518		0.313371	0.726580	0.110913	0.601314	97.779871	-53.541893	64.882460
34519		0.313505	0.726590	0.110683	0.601274	97.774166	-53.548457	64.857009
34520		0.313453	0.726587	0.110667	0.601309	97.773624	-53.555038	64.861009
34521		0.313479	0.726611	0.110588	0.601280	97.777574	-53.558046	64.848160
34522		0.313429	0.726620	0.110593	0.601294	97.781065	-53.561836	64.849585
34523		0.313593	0.726664	0.110422	0.601187	97.785629	-53.558838	64.815931
34524		0.313601	0.726689	0.110402	0.601156	97.791783	-53.558389	64.807345
34525		0.313448	0.726690	0.110529	0.601212	97.798115	-53.561866	64.825383
34526		0.313441	0.726737	0.110484	0.601166	97.810008	-53.563800	64.810278
34527		0.313372	0.726769	0.110494	0.601161	97.820226	-53.567800	64.807023
34528		0.313364	0.726811	0.110449	0.601124	97.830578	-53.570195	64.793727
34529		0.313242	0.726843	0.110526	0.601135	97.843418	-53.573461	64.798187
34530		0.313157	0.726879	0.110566	0.601128	97.856024	-53.576073	64.796464
34531		0.313061	0.726913	0.110641	0.601123	97.868930	-53.576778	64.798413
34532		0.312931	0.726941	0.110781	0.601131	97.882687	-53.575529	64.807834
34533		0.312878	0.726985	0.110827	0.601097	97.896728	-53.574197	64.802201
34534		0.312680	0.726981	0.110946	0.601183	97.902496	-53.582781	64.824329
34535		0.312648	0.726976	0.110887	0.601217	97.900067	-53.591185	64.824836
34536		0.312554	0.726925	0.110861	0.601332	97.887042	-53.605056	64.844369
34537		0.312644	0.726869	0.110651	0.601391	97.864632	-53.617587	64.841534
34538		0.312591	0.726802	0.110574	0.601515	97.844922	-53.632943	64.859920
34539		0.312486	0.726730	0.110585	0.601654	97.827388	-53.645728	64.888104
34540		0.312463	0.726659	0.110530	0.601762	97.806891	-53.656380	64.906425
34541		0.312295	0.726577	0.110666	0.601923	97.791147	-53.664902	64.948774
34542		0.312232	0.726530	0.110692	0.602008	97.780096	-53.671111	64.967873
34543		0.312111	0.726476	0.110750	0.602124	97.769082	-53.680302	64.994716
34544		0.312024	0.726428	0.110761	0.602225	97.757866	-53.690112	65.014919
34545		0.312160	0.726403	0.110565	0.602221	97.743101	-53.695555	65.001328
34546		0.312159	0.726319	0.110497	0.602336	97.718303	-53.705993	65.020877
34547		0.312233	0.726230	0.110361	0.602429	97.688947	-53.715403	65.032527
34548		0.312349	0.726127	0.110212	0.602520	97.654729	-53.722742	65.044202
34549		0.312299	0.726020	0.110233	0.602672	97.626716	-53.731323	65.078836
34550		0.312410	0.725992	0.110159	0.602661	97.615124	-53.728693	65.074292
34551		0.312495	0.726021	0.110151	0.602583	97.621522	-53.719861	65.059505
34552		0.312586	0.726070	0.110137	0.602480	97.632774	-53.709915	65.038610
34553		0.312920	0.726111	0.109888	0.602303	97.631582	-53.697752	64.989024
34554		0.313086	0.726086	0.109776	0.602266	97.618953	-53.693064	64.977370
34555		0.313096	0.725983	0.109751	0.602391	97.589721	-53.699716	65.003907
34556		0.313301	0.725849	0.109506	0.602490	97.542776	-53.708520	65.012490
34557		0.313460	0.725625	0.109330	0.602709	97.474112	-53.720521	65.052910
34558		0.313693	0.725403	0.109073	0.602902	97.402146	-53.732387	65.083116
34559		0.314063	0.725127	0.108732	0.603103	97.310981	-53.741296	65.113498
34560		0.314458	0.724801	0.108403	0.603348	97.206143	-53.749361	65.156174
34561		0.314908	0.724531	0.108026	0.603505	97.114492	-53.753328	65.176695
34562		0.315065	0.724296	0.107929	0.603722	97.044991	-53.758995	65.224572
34563		0.315280	0.724127	0.107727	0.603849	96.989413	-53.764897	65.244433
34564		0.315195	0.723986	0.107824	0.604045	96.954915	-53.771785	65.295099
34565		0.314731	0.723795	0.108203	0.604448	96.920388	-53.792511	65.403366
34566		0.314585	0.723646	0.108278	0.604689	96.883781	-53.807328	65.459817
34567		0.314781	0.723494	0.108069	0.604806	96.833067	-53.814613	65.475904
34568		0.314870	0.723284	0.107992	0.605025	96.771965	-53.823499	65.523123
34569		0.314944	0.723111	0.107930	0.605204	96.721651	-53.830607	65.562105
34570		0.314941	0.722992	0.107934	0.605347	96.689124	-53.836534	65.595526
34571		0.314977	0.722959	0.107877	0.605378	96.677924	-53.839663	65.598932
34572		0.314927	0.722955	0.107929	0.605400	96.678934	-53.840105	65.606745
34573		0.314667	0.722916	0.108156	0.605540	96.678596	-53.846858	65.649357
34574		0.314695	0.722930	0.108161	0.605508	96.682210	-53.843162	65.643557
34575		0.314622	0.722928	0.108266	0.605530	96.685772	-53.841083	65.655298
34576		0.314730	0.722996	0.108242	0.605397	96.702048	-53.829634	65.627066
34577		0.314863	0.723074	0.108220	0.605238	96.720959	-53.815034	65.594075
34578		0.315027	0.723138	0.108205	0.605080	96.735422	-53.797776	65.563183
34579		0.315021	0.723133	0.108346	0.605063	96.738331	-53.786430	65.572406
34580		0.315210	0.723160	0.108273	0.604946	96.740582	-53.773571	65.546891
34581		0.315531	0.723183	0.108090	0.604783	96.737075	-53.757914	65.506160
34582		0.315702	0.723177	0.107998	0.604718	96.730078	-53.750090	65.490067
34583		0.315584	0.723130	0.108205	0.604798	96.724998	-53.745663	65.522909
34584		0.315663	0.723130	0.108242	0.604752	96.724616	-53.735211	65.519169
34585		0.315592	0.723099	0.108419	0.604793	96.722326	-53.728034	65.542493
34586		0.315605	0.723094	0.108517	0.604775	96.723560	-53.718663	65.548116
34587		0.315579	0.723070	0.108659	0.604791	96.721481	-53.710022	65.564234
34588		0.315612	0.723053	0.108766	0.604775	96.719454	-53.698577	65.572038
34589		0.315759	0.723047	0.108710	0.604715	96.714002	-53.689839	65.559512
34590		0.315835	0.723004	0.108690	0.604731	96.700377	-53.686575	65.564717
34591		0.315723	0.722958	0.108816	0.604822	96.693091	-53.688654	65.592669
34592		0.315781	0.722953	0.108769	0.604806	96.689519	-53.687424	65.587105
34593		0.315840	0.722995	0.108722	0.604734	96.698679	-53.683918	65.568604
34594		0.315771	0.723066	0.108819	0.604667	96.722055	-53.678434	65.559259
34595		0.315711	0.723147	0.108943	0.604579	96.748714	-53.669272	65.548050
34596		0.315559	0.723255	0.109188	0.604486	96.787481	-53.657040	65.542940
34597		0.315382	0.723398	0.109427	0.604364	96.836031	-53.645824	65.529639
34598		0.315225	0.723508	0.109649	0.604274	96.874943	-53.635947	65.522976
34599		0.315187	0.723585	0.109681	0.604195	96.897518	-53.632815	65.506311
34600		0.315150	0.723672	0.109662	0.604114	96.921304	-53.633471	65.484100
34601		0.315086	0.723723	0.109634	0.604091	96.935489	-53.639331	65.473272
34602		0.315088	0.723801	0.109525	0.604017	96.953697	-53.644634	65.445818
34603		0.315090	0.723887	0.109409	0.603934	96.973737	-53.650096	65.415877
34604		0.315003	0.724024	0.109407	0.603815	97.012734	-53.651376	65.384308
34605		0.314921	0.724178	0.109396	0.603675	97.055714	-53.652245	65.347484
34606		0.314766	0.724335	0.109484	0.603552	97.103484	-53.651225	65.320558
34607		0.314694	0.724485	0.109472	0.603411	97.145475	-53.651313	65.283801
34608		0.314547	0.724608	0.109517	0.603332	97.182661	-53.654856	65.263366
34609		0.314483	0.724691	0.109463	0.603276	97.204865	-53.661383	65.242334
34610		0.314427	0.724737	0.109395	0.603261	97.216668	-53.669994	65.229887
34611		0.314455	0.724785	0.109232	0.603219	97.224614	-53.678962	65.205925
34612		0.314418	0.724807	0.109152	0.603227	97.229074	-53.688277	65.198275
34613		0.314447	0.724862	0.109006	0.603171	97.239768	-53.695261	65.172825
34614		0.314323	0.724900	0.109015	0.603189	97.252276	-53.704162	65.172229
34615		0.314165	0.724986	0.109079	0.603157	97.280200	-53.709090	65.163700
34616		0.314000	0.725062	0.109152	0.603137	97.305901	-53.714359	65.158846
34617		0.313808	0.725125	0.109259	0.603142	97.329180	-53.719937	65.161608
34618		0.313730	0.725172	0.109267	0.603126	97.343487	-53.724169	65.154977
34619		0.313665	0.725218	0.109255	0.603106	97.356889	-53.728952	65.146331
34620		0.313705	0.725223	0.109177	0.603093	97.355614	-53.731641	65.137530
34621		0.313664	0.725256	0.109163	0.603077	97.364965	-53.734987	65.130691
34622		0.313726	0.725292	0.109058	0.603021	97.370882	-53.736342	65.110541
34623		0.313627	0.725320	0.109147	0.603022	97.382672	-53.736529	65.114983
34624		0.313601	0.725380	0.109185	0.602958	97.400418	-53.732657	65.102500
34625		0.313480	0.725461	0.109312	0.602899	97.428320	-53.728772	65.095734
34626		0.313380	0.725544	0.109437	0.602829	97.455998	-53.723098	65.087319
34627		0.313401	0.725615	0.109445	0.602731	97.475340	-53.716717	65.066478
34628		0.313389	0.725673	0.109505	0.602656	97.493164	-53.709551	65.054476
34629		0.313545	0.725718	0.109391	0.602541	97.499789	-53.702353	65.024183
34630		0.313626	0.725751	0.109340	0.602470	97.505875	-53.697432	65.006496
34631		0.313601	0.725731	0.109371	0.602501	97.501747	-53.698183	65.015486
34632		0.313707	0.725734	0.109285	0.602458	97.498344	-53.695380	65.002177
34633		0.313920	0.725757	0.109104	0.602351	97.496333	-53.689682	64.969984
34634		0.313954	0.725759	0.109072	0.602337	97.495432	-53.689079	64.965061
34635		0.313907	0.725736	0.109120	0.602381	97.491066	-53.690663	64.977674
34636		0.313874	0.725757	0.109176	0.602363	97.498891	-53.687782	64.977440
34637		0.313717	0.725777	0.109345	0.602389	97.511786	-53.687013	64.992689
34638		0.313736	0.725803	0.109401	0.602338	97.520161	-53.678982	64.987092
34639		0.313777	0.725850	0.109387	0.602263	97.531792	-53.673864	64.970392
34640		0.313821	0.725890	0.109404	0.602189	97.542383	-53.666164	64.957035
34641		0.313880	0.725957	0.109365	0.602084	97.558771	-53.660419	64.931893
34642		0.313963	0.725988	0.109291	0.602017	97.563869	-53.657371	64.913206
34643		0.314258	0.726018	0.109026	0.601874	97.559926	-53.650752	64.868389
34644		0.314427	0.725991	0.108875	0.601846	97.545601	-53.649281	64.855093
34645		0.314390	0.725946	0.108892	0.601917	97.534203	-53.653593	64.871364
34646		0.314530	0.725907	0.108735	0.601919	97.516964	-53.656021	64.863137
34647		0.314688	0.725873	0.108597	0.601902	97.501356	-53.654792	64.853142
34648		0.314730	0.725849	0.108568	0.601914	97.493386	-53.654613	64.854919
34649		0.314608	0.725846	0.108671	0.601963	97.497334	-53.657407	64.870465
34650		0.314595	0.725848	0.108707	0.601961	97.499058	-53.655418	64.872867
34651		0.314909	0.725878	0.108438	0.601810	97.494661	-53.647463	64.826603
34652		0.314988	0.725840	0.108402	0.601821	97.481918	-53.645055	64.829300
34653		0.314955	0.725776	0.108453	0.601906	97.466412	-53.647145	64.852141
34654		0.315135	0.725735	0.108303	0.601888	97.448105	-53.645197	64.841927
34655		0.315233	0.725653	0.108194	0.601955	97.421203	-53.649665	64.851161
34656		0.315477	0.725580	0.107942	0.601960	97.390386	-53.652191	64.839247
34657		0.315874	0.725524	0.107547	0.601891	97.357667	-53.651793	64.803587
34658		0.316133	0.725442	0.107280	0.601902	97.323766	-53.654623	64.792259
34659		0.316451	0.725362	0.106996	0.601881	97.289125	-53.653274	64.774915
34660		0.316657	0.725276	0.106844	0.601903	97.258226	-53.651405	64.774766
34661		0.316813	0.725170	0.106830	0.601952	97.226276	-53.643484	64.791667
34662		0.316994	0.725093	0.106814	0.601951	97.201964	-53.631779	64.798292
34663		0.317025	0.724976	0.107006	0.602042	97.174450	-53.618501	64.839018
34664		0.317202	0.724860	0.107077	0.602076	97.141979	-53.601690	64.861519
34665		0.317420	0.724764	0.107107	0.602071	97.112989	-53.583456	64.873279
34666		0.317533	0.724665	0.107223	0.602110	97.087431	-53.568065	64.898305
34667		0.317481	0.724536	0.107476	0.602249	97.059682	-53.557934	64.951888
34668		0.317582	0.724458	0.107612	0.602264	97.040595	-53.540719	64.973073
34669		0.317545	0.724395	0.107888	0.602310	97.031520	-53.523594	65.008299
34670		0.317641	0.724334	0.108060	0.602301	97.018346	-53.502830	65.026943
34671		0.317585	0.724286	0.108370	0.602333	97.014701	-53.483881	65.061250
34672		0.317612	0.724302	0.108587	0.602260	97.024653	-53.461767	65.066512
34673		0.317611	0.724324	0.108768	0.602202	97.035681	-53.445085	65.070341
34674		0.317614	0.724347	0.108908	0.602148	97.045658	-53.431589	65.071555
34675		0.317602	0.724328	0.108980	0.602164	97.042655	-53.427562	65.081573
34676		0.317659	0.724331	0.108985	0.602129	97.042771	-53.421539	65.076680
34677		0.317759	0.724326	0.108899	0.602098	97.037371	-53.419835	65.065846
34678		0.317743	0.724350	0.108871	0.602082	97.043553	-53.422451	65.058875
34679		0.317726	0.724372	0.108854	0.602068	97.049272	-53.424353	65.053176
34680		0.317678	0.724422	0.108817	0.602040	97.062655	-53.429536	65.040997
34681		0.317661	0.724479	0.108722	0.601998	97.075742	-53.436443	65.021566
34682		0.317668	0.724538	0.108554	0.601953	97.086964	-53.447141	64.995768
34683		0.317751	0.724582	0.108255	0.601910	97.089459	-53.462823	64.961062
34684		0.317836	0.724637	0.107951	0.601855	97.094610	-53.478230	64.923140
34685		0.317772	0.724695	0.107720	0.601859	97.105143	-53.501023	64.899372
34686		0.317815	0.724745	0.107394	0.601835	97.109184	-53.522512	64.864569
34687		0.317732	0.724825	0.107194	0.601818	97.126939	-53.543372	64.837810
34688		0.317682	0.724931	0.107014	0.601749	97.151773	-53.558078	64.802482
34689		0.317629	0.725037	0.106923	0.601665	97.179309	-53.565366	64.772139
34690		0.317554	0.725160	0.106908	0.601559	97.213543	-53.567248	64.743147
34691		0.317413	0.725293	0.106985	0.601459	97.254370	-53.566956	64.721099
34692		0.317305	0.725429	0.107029	0.601344	97.294389	-53.566176	64.694224
34693		0.317238	0.725564	0.106988	0.601224	97.331353	-53.568890	64.659621
34694		0.317199	0.725658	0.106923	0.601143	97.355813	-53.573194	64.633107
34695		0.316991	0.725707	0.106928	0.601192	97.372824	-53.589857	64.635295
34696		0.317033	0.725759	0.106730	0.601143	97.381149	-53.600210	64.606895
34697		0.317150	0.725813	0.106471	0.601062	97.387129	-53.608585	64.568837
34698		0.317153	0.725854	0.106381	0.601027	97.395769	-53.613886	64.552469
34699		0.317285	0.725930	0.106232	0.600892	97.410374	-53.610102	64.513358
34700		0.317199	0.725976	0.106340	0.600863	97.427232	-53.606603	64.513095
34701		0.316928	0.726007	0.106621	0.600918	97.447804	-53.606338	64.540185
34702		0.316766	0.726070	0.106795	0.600897	97.472143	-53.603322	64.544729
34703		0.316606	0.726081	0.106919	0.600945	97.481305	-53.607095	64.560191
34704		0.316531	0.726070	0.106941	0.600994	97.480008	-53.612901	64.570246
34705		0.316469	0.726038	0.106919	0.601070	97.471688	-53.622357	64.582536
34706		0.316520	0.725972	0.106796	0.601145	97.449495	-53.631701	64.590100
34707		0.316701	0.725889	0.106556	0.601191	97.417545	-53.639593	64.586119
34708		0.316821	0.725797	0.106404	0.601267	97.386313	-53.646247	64.594276
34709		0.316927	0.725731	0.106290	0.601311	97.363444	-53.649608	64.598279
34710		0.316955	0.725680	0.106309	0.601354	97.349586	-53.648005	64.611249
34711		0.317098	0.725670	0.106250	0.601301	97.342942	-53.640032	64.600091
34712		0.317079	0.725641	0.106336	0.601331	97.337603	-53.636095	64.614267
34713		0.316936	0.725567	0.106516	0.601464	97.324458	-53.637985	64.655413
34714		0.316949	0.725525	0.106549	0.601501	97.313637	-53.636075	64.667836
34715		0.316925	0.725471	0.106577	0.601574	97.300098	-53.638788	64.686009
34716		0.316967	0.725426	0.106557	0.601610	97.286548	-53.638918	64.694246
34717		0.316929	0.725374	0.106606	0.601684	97.274169	-53.641061	64.714259
34718		0.316911	0.725357	0.106614	0.601713	97.269959	-53.642952	64.720751
34719		0.316859	0.725360	0.106705	0.601720	97.274070	-53.639842	64.728864
34720		0.316790	0.725360	0.106803	0.601740	97.277778	-53.637990	64.739421
34721		0.316618	0.725360	0.107004	0.601795	97.285972	-53.636981	64.763444
34722		0.316536	0.725374	0.107122	0.601799	97.294563	-53.633755	64.772012
34723		0.316332	0.725373	0.107327	0.601871	97.303012	-53.635466	64.798888
34724		0.316319	0.725396	0.107353	0.601846	97.310205	-53.633236	64.794970
34725		0.316417	0.725414	0.107261	0.601789	97.311033	-53.630935	64.777627
34726		0.316466	0.725449	0.107194	0.601733	97.318033	-53.630165	64.760592
34727		0.316487	0.725473	0.107130	0.601704	97.322647	-53.632469	64.748762
34728		0.316567	0.725519	0.107040	0.601624	97.331257	-53.630326	64.725318
34729		0.316426	0.725543	0.107135	0.601650	97.342936	-53.634015	64.734187
34730		0.316440	0.725607	0.107119	0.601569	97.359676	-53.630788	64.714716
34731		0.316432	0.725681	0.107088	0.601489	97.379301	-53.630216	64.693036
34732		0.316397	0.725752	0.107086	0.601422	97.399254	-53.629952	64.675979
34733		0.316411	0.725837	0.107008	0.601327	97.420153	-53.630901	64.647158
34734		0.316372	0.725909	0.106953	0.601270	97.439119	-53.635485	64.627040
34735		0.316332	0.725959	0.106904	0.601239	97.452092	-53.640785	64.613628
34736		0.316305	0.726010	0.106814	0.601209	97.464016	-53.648463	64.596603
34737		0.316322	0.726060	0.106663	0.601165	97.473641	-53.657146	64.572961
34738		0.316285	0.726109	0.106572	0.601142	97.485235	-53.665752	64.557114
34739		0.316177	0.726127	0.106565	0.601178	97.491833	-53.675644	64.559767
34740		0.316140	0.726184	0.106519	0.601137	97.506838	-53.680036	64.544216
34741		0.316004	0.726217	0.106556	0.601162	97.519094	-53.687998	64.547284
34742		0.315946	0.726244	0.106536	0.601163	97.527005	-53.693739	64.542988
34743		0.315787	0.726276	0.106604	0.601197	97.540066	-53.701214	64.549908
34744		0.315710	0.726299	0.106593	0.601211	97.547622	-53.708198	64.548333
34745		0.315617	0.726309	0.106565	0.601253	97.551070	-53.718880	64.551049
34746		0.315597	0.726285	0.106467	0.601310	97.542179	-53.730507	64.553832
34747		0.315722	0.726258	0.106217	0.601321	97.526347	-53.741596	64.537936
34748		0.315756	0.726195	0.106101	0.601400	97.505309	-53.751768	64.546458
34749		0.315870	0.726142	0.105864	0.601446	97.482671	-53.764270	64.539497
34750		0.315846	0.726120	0.105819	0.601493	97.475923	-53.771505	64.544756
34751		0.315902	0.726139	0.105709	0.601459	97.477367	-53.774602	64.529179
34752		0.315800	0.726150	0.105752	0.601492	97.483333	-53.779971	64.536034
34753		0.315511	0.726152	0.105963	0.601605	97.494031	-53.789041	64.568933
34754		0.315424	0.726154	0.105992	0.601643	97.496963	-53.794722	64.576337
34755		0.315521	0.726170	0.105840	0.601599	97.495736	-53.797736	64.556166
34756		0.315505	0.726144	0.105788	0.601648	97.487466	-53.805117	64.561694
34757		0.315441	0.726090	0.105788	0.601747	97.473751	-53.814042	64.581474
34758		0.315476	0.726034	0.105701	0.601812	97.455463	-53.821238	64.589621
34759		0.315499	0.725999	0.105650	0.601851	97.444053	-53.825300	64.594779
34760		0.315430	0.725984	0.105688	0.601899	97.442106	-53.829386	64.606225
34761		0.315253	0.725974	0.105827	0.601978	97.446190	-53.834551	64.629621
34762		0.315173	0.725980	0.105885	0.602002	97.450686	-53.836796	64.637252
34763		0.315066	0.725966	0.105955	0.602064	97.450301	-53.841637	64.653107
34764		0.315023	0.725970	0.105961	0.602080	97.452426	-53.844999	64.655350
34765		0.315181	0.726006	0.105815	0.601979	97.455792	-53.840717	64.625548
34766		0.315189	0.726023	0.105766	0.601964	97.458991	-53.843339	64.617569
34767		0.315013	0.726002	0.105907	0.602056	97.459959	-53.848895	64.644294
34768		0.315097	0.725966	0.105810	0.602072	97.446151	-53.851150	64.642530
34769		0.315111	0.725924	0.105760	0.602125	97.433020	-53.856475	64.650433
34770		0.315100	0.725895	0.105731	0.602171	97.424452	-53.861513	64.657669
34771		0.314949	0.725851	0.105818	0.602288	97.417102	-53.870584	64.686130
34772		0.314820	0.725842	0.105894	0.602352	97.418945	-53.876698	64.702257
34773		0.314735	0.725816	0.105921	0.602423	97.413766	-53.883701	64.717442
34774		0.314721	0.725790	0.105953	0.602457	97.407679	-53.883730	64.727484
34775		0.314751	0.725776	0.105920	0.602463	97.402527	-53.884427	64.727150
34776		0.314764	0.725769	0.105911	0.602466	97.400224	-53.884352	64.727612
34777		0.314797	0.725773	0.105878	0.602450	97.399848	-53.883811	64.722247
34778		0.314798	0.725780	0.105868	0.602443	97.401508	-53.884230	64.719652
34779		0.314964	0.725799	0.105681	0.602366	97.398931	-53.883657	64.691808
34780		0.314972	0.725781	0.105681	0.602384	97.393825	-53.883865	64.696251
34781		0.314984	0.725786	0.105664	0.602374	97.394682	-53.883939	64.692778
34782		0.314995	0.725773	0.105648	0.602387	97.390511	-53.884942	64.694703
34783		0.314826	0.725704	0.105759	0.602539	97.377167	-53.894988	64.732715
34784		0.314843	0.725659	0.105739	0.602588	97.364050	-53.897500	64.742815
34785		0.314855	0.725632	0.105746	0.602613	97.356631	-53.897194	64.749826
34786		0.314865	0.725606	0.105785	0.602632	97.350330	-53.894254	64.758452
34787		0.314929	0.725606	0.105802	0.602595	97.349699	-53.886770	64.754615
34788		0.314886	0.725641	0.105941	0.602552	97.363643	-53.877033	64.755872
34789		0.314730	0.725669	0.106176	0.602558	97.380074	-53.870068	64.772769
34790		0.314692	0.725701	0.106353	0.602508	97.394352	-53.856730	64.776414
34791		0.314828	0.725736	0.106377	0.602390	97.402370	-53.839913	64.757922
34792		0.314917	0.725729	0.106460	0.602338	97.401046	-53.824834	64.757883
34793		0.315095	0.725725	0.106446	0.602253	97.396406	-53.809495	64.745158
34794		0.315200	0.725729	0.106488	0.602185	97.396957	-53.795703	64.738560
34795		0.315244	0.725747	0.106606	0.602119	97.404296	-53.780425	64.736741
34796		0.315266	0.725772	0.106731	0.602055	97.414120	-53.766318	64.735056
34797		0.315265	0.725825	0.106891	0.601965	97.432809	-53.749881	64.729519
34798		0.315265	0.725862	0.107022	0.601896	97.446531	-53.736574	64.726356
34799		0.315199	0.725860	0.107170	0.601907	97.450975	-53.730244	64.740073
34800		0.315275	0.725844	0.107162	0.601887	97.445215	-53.724548	64.738242
34801		0.315231	0.725825	0.107218	0.601924	97.442068	-53.724905	64.750118
34802		0.315272	0.725801	0.107188	0.601936	97.434023	-53.724815	64.751995
34803		0.315390	0.725786	0.107060	0.601916	97.424522	-53.725577	64.740307
34804		0.315403	0.725757	0.107053	0.601944	97.416383	-53.726397	64.746806
34805		0.315287	0.725709	0.107126	0.602050	97.406963	-53.733649	64.772834
34806		0.315237	0.725697	0.107148	0.602087	97.405057	-53.737134	64.781229
34807		0.315258	0.725701	0.107057	0.602087	97.403497	-53.742706	64.773394
34808		0.315154	0.725698	0.107056	0.602145	97.404443	-53.752758	64.781845
34809		0.314896	0.725631	0.107140	0.602347	97.392410	-53.773456	64.824361
34810		0.314878	0.725577	0.106992	0.602448	97.373884	-53.790815	64.832630
34811		0.314916	0.725484	0.106755	0.602582	97.341444	-53.812472	64.842430
34812		0.315030	0.725392	0.106451	0.602686	97.306344	-53.832653	64.842441
34813		0.315137	0.725286	0.106148	0.602811	97.267437	-53.854181	64.847111
34814		0.315237	0.725175	0.105838	0.602947	97.226940	-53.877289	64.853508
34815		0.315121	0.725061	0.105709	0.603168	97.193938	-53.905353	64.886784
34816		0.315087	0.724978	0.105511	0.603319	97.166482	-53.929847	64.901283
34817		0.315057	0.724920	0.105336	0.603436	97.146241	-53.950727	64.910187
34818		0.314944	0.724857	0.105273	0.603581	97.129028	-53.970021	64.932656
34819		0.314680	0.724784	0.105377	0.603788	97.116036	-53.989780	64.978364
34820		0.314609	0.724741	0.105410	0.603871	97.106212	-53.995826	64.997512
34821		0.314524	0.724718	0.105444	0.603937	97.102071	-54.002082	65.012201
34822		0.314555	0.724686	0.105408	0.603966	97.091735	-54.004009	65.016837
34823		0.314610	0.724660	0.105330	0.603982	97.081620	-54.006927	65.015677
34824		0.314726	0.724633	0.105193	0.603978	97.068801	-54.009106	65.006832
34825		0.314705	0.724592	0.105175	0.604041	97.057375	-54.014755	65.018791
34826		0.314789	0.724578	0.105075	0.604032	97.049400	-54.016163	65.011017
34827		0.314843	0.724568	0.105031	0.604023	97.044558	-54.015338	65.007291
34828		0.314834	0.724581	0.105066	0.604006	97.049315	-54.012499	65.006166
34829		0.314811	0.724609	0.105139	0.603971	97.059396	-54.006912	65.004063
34830		0.314739	0.724612	0.105297	0.603978	97.065521	-54.000054	65.017487
34831		0.314600	0.724618	0.105484	0.604010	97.074378	-53.996693	65.036506
34832		0.314494	0.724618	0.105627	0.604040	97.080003	-53.994357	65.052250
34833		0.314513	0.724617	0.105635	0.604031	97.079605	-53.991973	65.051668
34834		0.314522	0.724584	0.105645	0.604064	97.070456	-53.991993	65.060774
34835		0.314554	0.724521	0.105602	0.604130	97.051558	-53.995962	65.073464
34836		0.314651	0.724471	0.105491	0.604160	97.033091	-53.998994	65.074151
34837		0.314697	0.724409	0.105417	0.604223	97.013276	-54.004123	65.083916
34838		0.314709	0.724394	0.105371	0.604242	97.007793	-54.007661	65.084539
34839		0.314718	0.724367	0.105319	0.604279	96.998886	-54.012726	65.088479
34840		0.314672	0.724344	0.105335	0.604327	96.993790	-54.016809	65.099090
34841		0.314625	0.724303	0.105343	0.604400	96.983261	-54.022732	65.114589
34842		0.314578	0.724253	0.105361	0.604481	96.970688	-54.028136	65.133141
34843		0.314575	0.724199	0.105320	0.604555	96.954659	-54.034753	65.146220
34844		0.314576	0.724134	0.105302	0.604635	96.936374	-54.039523	65.163136
34845		0.314667	0.724052	0.105151	0.604713	96.908058	-54.048203	65.171046
34846		0.314744	0.723991	0.105026	0.604767	96.886612	-54.054789	65.175350
34847		0.314934	0.723947	0.104786	0.604763	96.865074	-54.059836	65.160115
34848		0.315042	0.723917	0.104635	0.604768	96.851210	-54.064212	65.151839
34849		0.315099	0.723902	0.104539	0.604773	96.843493	-54.067881	65.146519
34850		0.315119	0.723912	0.104513	0.604755	96.845191	-54.067740	65.140873
34851		0.315139	0.723951	0.104499	0.604700	96.855371	-54.065005	65.127548
34852		0.315093	0.723958	0.104549	0.604707	96.859303	-54.064619	65.131948
34853		0.315046	0.723929	0.104604	0.604757	96.853477	-54.065822	65.146557
34854		0.315015	0.723919	0.104611	0.604784	96.851505	-54.068697	65.151994
34855		0.314991	0.723886	0.104595	0.604839	96.842148	-54.073938	65.162343
34856		0.314998	0.723831	0.104546	0.604909	96.825668	-54.080312	65.174281
34857		0.315099	0.723786	0.104418	0.604932	96.808275	-54.084094	65.172145
34858		0.315168	0.723731	0.104330	0.604978	96.789589	-54.088016	65.177565
34859		0.315278	0.723698	0.104206	0.604982	96.775257	-54.090059	65.171742
34860		0.315354	0.723688	0.104121	0.604968	96.769080	-54.090702	65.164055
34861		0.315496	0.723699	0.103991	0.604904	96.766444	-54.087929	65.143136
34862		0.315598	0.723709	0.103889	0.604855	96.765052	-54.086637	65.126853
34863		0.315776	0.723724	0.103733	0.604771	96.762247	-54.082463	65.100564
34864		0.315843	0.723713	0.103663	0.604762	96.756336	-54.082775	65.094775
34865		0.315931	0.723682	0.103577	0.604767	96.744113	-54.083461	65.092050
34866		0.315945	0.723631	0.103550	0.604826	96.728932	-54.087014	65.103804
34867		0.315977	0.723570	0.103494	0.604891	96.710301	-54.091925	65.115094
34868		0.316009	0.723502	0.103492	0.604956	96.690881	-54.092600	65.131562
34869		0.316095	0.723468	0.103444	0.604960	96.678948	-54.090311	65.131876
34870		0.316137	0.723430	0.103454	0.604982	96.668028	-54.087492	65.139843
34871		0.316105	0.723416	0.103517	0.605005	96.666273	-54.085804	65.149802
34872		0.316139	0.723425	0.103514	0.604977	96.668081	-54.082373	65.144570
34873		0.316112	0.723443	0.103530	0.604967	96.673931	-54.082704	65.142490
34874		0.316160	0.723457	0.103481	0.604934	96.675744	-54.081675	65.132190
34875		0.316246	0.723444	0.103368	0.604923	96.667997	-54.083909	65.122984
34876		0.316336	0.723426	0.103284	0.604912	96.659384	-54.083601	65.116551
34877		0.316434	0.723394	0.103168	0.604919	96.645703	-54.085951	65.111797
34878		0.316440	0.723369	0.103168	0.604945	96.638930	-54.086598	65.118163
34879		0.316392	0.723359	0.103193	0.604978	96.637549	-54.089505	65.125887
34880		0.316340	0.723370	0.103243	0.604984	96.642685	-54.089578	65.129657
34881		0.316395	0.723413	0.103185	0.604913	96.652224	-54.087203	65.110176
34882		0.316410	0.723433	0.103165	0.604885	96.657006	-54.086462	65.102411
34883		0.316435	0.723448	0.103113	0.604863	96.659403	-54.087865	65.093416
34884		0.316531	0.723462	0.102987	0.604818	96.658234	-54.088950	65.075513
34885		0.316719	0.723465	0.102774	0.604752	96.650668	-54.089410	65.048457
34886		0.316845	0.723468	0.102649	0.604704	96.646217	-54.088140	65.031214
34887		0.316958	0.723478	0.102539	0.604652	96.644266	-54.086400	65.013852
34888		0.317038	0.723488	0.102505	0.604603	96.644995	-54.081310	65.003059
34889		0.317082	0.723533	0.102516	0.604525	96.656963	-54.073913	64.987747
34890		0.317021	0.723607	0.102643	0.604446	96.681787	-54.064913	64.978721
34891		0.316917	0.723677	0.102811	0.604389	96.707075	-54.056793	64.976515
34892		0.316863	0.723738	0.102894	0.604329	96.727179	-54.051537	64.967935
34893		0.316762	0.723772	0.102985	0.604326	96.740467	-54.051524	64.971177
34894		0.316811	0.723786	0.102928	0.604294	96.741924	-54.051123	64.960563
34895		0.316843	0.723783	0.102865	0.604291	96.739026	-54.053628	64.955342
34896		0.316891	0.723790	0.102793	0.604270	96.738276	-54.054935	64.945884
34897		0.316862	0.723791	0.102812	0.604281	96.739419	-54.056010	64.948905
34898		0.316830	0.723811	0.102861	0.604265	96.746822	-54.053782	64.948440
34899		0.316700	0.723838	0.103024	0.604273	96.760499	-54.050643	64.959770
34900		0.316648	0.723877	0.103101	0.604240	96.774359	-54.046884	64.956987
34901		0.316623	0.723921	0.103138	0.604195	96.787700	-54.043843	64.948734
34902		0.316685	0.723927	0.103097	0.604162	96.787369	-54.041238	64.940053
34903		0.316786	0.723922	0.102958	0.604138	96.780729	-54.043828	64.926151
34904		0.316952	0.723907	0.102782	0.604099	96.769541	-54.044146	64.907837
34905		0.317198	0.723896	0.102537	0.604025	96.756167	-54.042586	64.878799
34906		0.317327	0.723890	0.102428	0.603983	96.749533	-54.040046	64.864732
34907		0.317341	0.723889	0.102468	0.603971	96.750118	-54.035438	64.866162
34908		0.317298	0.723945	0.102597	0.603904	96.769672	-54.025444	64.860912
34909		0.317235	0.724025	0.102800	0.603806	96.798086	-54.009906	64.854620
34910		0.317122	0.724124	0.103054	0.603703	96.833866	-53.993497	64.849632
34911		0.316989	0.724194	0.103363	0.603637	96.863245	-53.975897	64.857514
34912		0.317020	0.724242	0.103485	0.603542	96.879332	-53.960010	64.848461
34913		0.317205	0.724261	0.103413	0.603434	96.879688	-53.947855	64.825283
34914		0.317396	0.724261	0.103295	0.603354	96.873612	-53.939918	64.804292
34915		0.317730	0.724273	0.103027	0.603210	96.864613	-53.930902	64.760794
34916		0.317972	0.724256	0.102827	0.603137	96.850897	-53.926143	64.736133
34917		0.318210	0.724244	0.102686	0.603050	96.840301	-53.916451	64.713515
34918		0.318388	0.724253	0.102674	0.602947	96.839780	-53.900189	64.696758
34919		0.318394	0.724295	0.102821	0.602868	96.854988	-53.884745	64.692907
34920		0.318390	0.724379	0.103023	0.602734	96.883584	-53.863391	64.680994
34921		0.318448	0.724471	0.103194	0.602564	96.912413	-53.838499	64.660548
34922		0.318450	0.724531	0.103413	0.602453	96.934509	-53.816287	64.656063
34923		0.318354	0.724545	0.103719	0.602434	96.947930	-53.798350	64.676309
34924		0.318445	0.724573	0.103842	0.602332	96.957286	-53.777759	64.668738
34925		0.318616	0.724623	0.103877	0.602176	96.969241	-53.755968	64.643902
34926		0.318663	0.724647	0.103994	0.602101	96.978112	-53.740175	64.640157
34927		0.318644	0.724684	0.104191	0.602033	96.993700	-53.723120	64.642369
34928		0.318661	0.724719	0.104330	0.601958	97.006764	-53.707788	64.639033
34929		0.318627	0.724740	0.104498	0.601921	97.017575	-53.695452	64.645006
34930		0.318583	0.724747	0.104625	0.601914	97.023370	-53.688283	64.653532
34931		0.318456	0.724737	0.104749	0.601972	97.025965	-53.690144	64.672838
34932		0.318426	0.724691	0.104775	0.602038	97.014560	-53.693068	64.689161
34933		0.318488	0.724634	0.104686	0.602090	96.995561	-53.698005	64.695382
34934		0.318563	0.724532	0.104610	0.602186	96.964477	-53.702641	64.713642
34935		0.318559	0.724433	0.104560	0.602316	96.936157	-53.712525	64.738506
34936		0.318568	0.724385	0.104525	0.602374	96.922046	-53.717223	64.749116
34937		0.318507	0.724370	0.104574	0.602417	96.919995	-53.719570	64.760801
34938		0.318468	0.724372	0.104625	0.602426	96.922681	-53.718692	64.765854
34939		0.318553	0.724388	0.104554	0.602375	96.923636	-53.715974	64.751263
34940		0.318587	0.724396	0.104551	0.602347	96.925299	-53.712554	64.746163
34941		0.318676	0.724410	0.104468	0.602297	96.925625	-53.710507	64.730905
34942		0.318776	0.724401	0.104406	0.602266	96.919786	-53.706975	64.722530
34943		0.318843	0.724423	0.104402	0.602205	96.924781	-53.699801	64.711043
34944		0.318867	0.724460	0.104457	0.602138	96.935962	-53.690945	64.702080
34945		0.318765	0.724505	0.104649	0.602104	96.954976	-53.681623	64.707926
34946		0.318742	0.724578	0.104829	0.601997	96.980172	-53.664470	64.699419
34947		0.318769	0.724677	0.104992	0.601835	97.011187	-53.642731	64.679011
34948		0.318762	0.724756	0.105210	0.601707	97.038541	-53.620583	64.669930
34949		0.318883	0.724839	0.105309	0.601525	97.061950	-53.596234	64.643308
34950		0.318938	0.724907	0.105428	0.601392	97.082950	-53.577136	64.626835
34951		0.319085	0.724968	0.105440	0.601240	97.097380	-53.559077	64.599828
34952		0.319225	0.725013	0.105432	0.601112	97.107210	-53.544124	64.576373
34953		0.319417	0.725049	0.105343	0.600982	97.111788	-53.531786	64.546839
34954		0.319490	0.725098	0.105350	0.600883	97.124163	-53.521613	64.528191
34955		0.319464	0.725147	0.105463	0.600818	97.140817	-53.511792	64.523001
34956		0.319461	0.725207	0.105545	0.600733	97.159413	-53.501844	64.511352
34957		0.319467	0.725257	0.105668	0.600648	97.176232	-53.488079	64.503875
34958		0.319415	0.725318	0.105835	0.600572	97.198065	-53.475387	64.500237
34959		0.319434	0.725401	0.105930	0.600444	97.222996	-53.460907	64.481164
34960		0.319452	0.725448	0.105992	0.600367	97.237028	-53.451422	64.470330
34961		0.319617	0.725516	0.105890	0.600215	97.250262	-53.440877	64.433518
34962		0.319700	0.725552	0.105823	0.600140	97.256794	-53.436952	64.413795
34963		0.319822	0.725559	0.105690	0.600091	97.253178	-53.436555	64.395406
34964		0.319870	0.725564	0.105603	0.600073	97.251741	-53.439107	64.385292
34965		0.319760	0.725583	0.105639	0.600103	97.259403	-53.445446	64.390588
34966		0.319651	0.725606	0.105720	0.600119	97.269530	-53.447649	64.396930
34967		0.319548	0.725636	0.105802	0.600123	97.281694	-53.448678	64.400936
34968		0.319369	0.725672	0.105973	0.600144	97.298970	-53.448930	64.413807
34969		0.319323	0.725726	0.106015	0.600096	97.315516	-53.446889	64.404786
34970		0.319216	0.725734	0.106096	0.600129	97.321380	-53.449533	64.415318
34971		0.319152	0.725699	0.106111	0.600203	97.313353	-53.456215	64.430580
34972		0.319181	0.725646	0.106001	0.600271	97.295489	-53.465819	64.436888
34973		0.319369	0.725614	0.105761	0.600252	97.277453	-53.470337	64.418182
34974		0.319417	0.725592	0.105655	0.600272	97.267823	-53.476113	64.414742
34975		0.319382	0.725564	0.105631	0.600329	97.260183	-53.483044	64.423762
34976		0.319304	0.725575	0.105689	0.600346	97.266100	-53.484792	64.429700
34977		0.319165	0.725605	0.105841	0.600357	97.280376	-53.483203	64.440491
34978		0.319007	0.725651	0.106026	0.600354	97.300399	-53.479896	64.449950
34979		0.318966	0.725690	0.106112	0.600313	97.313929	-53.474178	64.447094
34980		0.318902	0.725708	0.106253	0.600299	97.323806	-53.467169	64.454604
34981		0.318837	0.725694	0.106357	0.600332	97.323816	-53.465097	64.469077
34982		0.318830	0.725692	0.106401	0.600331	97.324402	-53.462047	64.472657
34983		0.318854	0.725693	0.106369	0.600323	97.323449	-53.462485	64.468806
34984		0.318880	0.725671	0.106339	0.600341	97.316217	-53.463827	64.471258
34985		0.318881	0.725630	0.106331	0.600392	97.304781	-53.466651	64.482048
34986		0.318872	0.725614	0.106345	0.600412	97.301114	-53.467020	64.487774
34987		0.318826	0.725635	0.106416	0.600400	97.309287	-53.464262	64.489627
34988		0.318710	0.725655	0.106573	0.600409	97.320866	-53.460645	64.501351
34989		0.318657	0.725684	0.106683	0.600383	97.332458	-53.454581	64.503552
34990		0.318587	0.725684	0.106811	0.600396	97.337147	-53.450194	64.515722
34991		0.318573	0.725651	0.106815	0.600443	97.328506	-53.452903	64.526035
34992		0.318594	0.725590	0.106781	0.600512	97.310631	-53.457118	64.539455
34993		0.318629	0.725536	0.106711	0.600571	97.293476	-53.462738	64.547813
34994		0.318635	0.725483	0.106676	0.600638	97.277987	-53.467894	64.560027
34995		0.318657	0.725469	0.106673	0.600644	97.273628	-53.466888	64.562189
34996		0.318657	0.725442	0.106735	0.600666	97.267849	-53.462992	64.573053
34997		0.318514	0.725418	0.106967	0.600729	97.270041	-53.457826	64.603094
34998		0.318493	0.725418	0.107094	0.600718	97.273630	-53.448796	64.611767
34999		0.318512	0.725428	0.107184	0.600679	97.278585	-53.438750	64.612416
35000		0.318481	0.725412	0.107267	0.600700	97.276981	-53.435317	64.623710
35001		0.318578	0.725369	0.107226	0.600708	97.262478	-53.431992	64.626128
35002		0.318552	0.725315	0.107284	0.600777	97.249640	-53.432379	64.646148
35003		0.318418	0.725248	0.107432	0.600902	97.237685	-53.435845	64.682678
35004		0.318412	0.725189	0.107534	0.600958	97.224597	-53.430593	64.704866
35005		0.318496	0.725153	0.107527	0.600959	97.213201	-53.425312	64.708125
35006		0.318495	0.725113	0.107658	0.600984	97.205907	-53.416188	64.726360
35007		0.318407	0.725052	0.107824	0.601074	97.195247	-53.413384	64.758805
35008		0.318386	0.725016	0.107902	0.601115	97.187892	-53.410526	64.774530
35009		0.318280	0.724976	0.108008	0.601200	97.181457	-53.413519	64.799467
35010		0.318225	0.724931	0.108049	0.601276	97.171258	-53.417496	64.818161
35011		0.318118	0.724859	0.108122	0.601407	97.155295	-53.425138	64.850127
35012		0.318022	0.724803	0.108218	0.601507	97.144350	-53.428864	64.877852
35013		0.317982	0.724754	0.108243	0.601583	97.132262	-53.432964	64.895739
35014		0.317888	0.724684	0.108364	0.601696	97.117957	-53.435222	64.928728
35015		0.317754	0.724631	0.108510	0.601804	97.109664	-53.438007	64.961326
35016		0.317652	0.724593	0.108657	0.601877	97.105067	-53.436909	64.987373
35017		0.317567	0.724577	0.108759	0.601922	97.104966	-53.436883	65.003664
35018		0.317466	0.724574	0.108835	0.601966	97.107655	-53.440144	65.016369
35019		0.317329	0.724546	0.108899	0.602060	97.104224	-53.448979	65.037627
35020		0.317231	0.724540	0.108921	0.602114	97.104764	-53.456635	65.047870
35021		0.317154	0.724527	0.108903	0.602175	97.101690	-53.466213	65.056577
35022		0.317049	0.724483	0.108952	0.602275	97.092740	-53.474195	65.079262
35023		0.317021	0.724450	0.108913	0.602335	97.083364	-53.481846	65.088090
35024		0.316858	0.724419	0.109014	0.602440	97.080275	-53.490106	65.114439
35025		0.316763	0.724412	0.109037	0.602494	97.080424	-53.497468	65.124783
35026		0.316570	0.724391	0.109137	0.602603	97.080539	-53.508081	65.150546
35027		0.316422	0.724371	0.109149	0.602703	97.077801	-53.522140	65.167831
35028		0.316270	0.724332	0.109167	0.602825	97.070094	-53.536820	65.190953
35029		0.316082	0.724298	0.109216	0.602957	97.064989	-53.552183	65.217352
35030		0.315933	0.724264	0.109219	0.603075	97.058176	-53.567672	65.238001
35031		0.315866	0.724258	0.109190	0.603123	97.056748	-53.576802	65.243228
35032		0.315673	0.724250	0.109244	0.603223	97.059207	-53.590766	65.262751
35033		0.315388	0.724228	0.109373	0.603376	97.061351	-53.607699	65.297262
35034		0.315215	0.724201	0.109390	0.603495	97.057121	-53.623816	65.318670
35035		0.315221	0.724168	0.109229	0.603560	97.043623	-53.638859	65.318501
35036		0.315168	0.724079	0.109153	0.603709	97.017822	-53.655022	65.343205
35037		0.315159	0.724010	0.109049	0.603815	96.996219	-53.668337	65.357274
35038		0.315089	0.723958	0.109038	0.603915	96.982922	-53.678507	65.376125
35039		0.315077	0.723962	0.108991	0.603925	96.982912	-53.683454	65.373387
35040		0.314965	0.723979	0.109094	0.603945	96.992180	-53.684277	65.382767
35041		0.314825	0.723981	0.109260	0.603986	96.999507	-53.682994	65.401753
35042		0.314746	0.724007	0.109415	0.603967	97.012342	-53.675743	65.408767
35043		0.314664	0.724026	0.109597	0.603955	97.023956	-53.666841	65.419503
35044		0.314668	0.724046	0.109722	0.603906	97.032918	-53.654649	65.420288
35045		0.314678	0.724028	0.109817	0.603905	97.030406	-53.646391	65.429791
35046		0.314701	0.724023	0.109907	0.603883	97.031153	-53.636785	65.434249
35047		0.314684	0.724010	0.110010	0.603889	97.030803	-53.630150	65.444660
35048		0.314665	0.724008	0.110114	0.603882	97.033479	-53.623019	65.452243
35049		0.314641	0.724009	0.110225	0.603873	97.037526	-53.615666	65.459539
35050		0.314587	0.724014	0.110382	0.603867	97.044014	-53.606953	65.470804
35051		0.314594	0.724032	0.110505	0.603819	97.052365	-53.594826	65.471788
35052		0.314545	0.724034	0.110700	0.603807	97.059183	-53.582504	65.485423
35053		0.314611	0.724057	0.110760	0.603732	97.066339	-53.569791	65.477110
35054		0.314595	0.724068	0.110901	0.603702	97.073622	-53.558642	65.482855
35055		0.314605	0.724067	0.110941	0.603691	97.074120	-53.554348	65.484645
35056		0.314647	0.724050	0.110940	0.603690	97.068814	-53.551301	65.486069
35057		0.314581	0.724020	0.111007	0.603747	97.063801	-53.553201	65.502691
35058		0.314620	0.723992	0.111000	0.603763	97.055103	-53.551670	65.507374
35059		0.314676	0.723983	0.110980	0.603748	97.051203	-53.548498	65.504574
35060		0.314690	0.723989	0.111023	0.603725	97.054031	-53.543170	65.503921
35061		0.314610	0.724015	0.111160	0.603710	97.066282	-53.537562	65.510072
35062		0.314539	0.724057	0.111282	0.603674	97.082449	-53.531506	65.510346
35063		0.314516	0.724100	0.111365	0.603620	97.096821	-53.524370	65.504824
35064		0.314506	0.724113	0.111423	0.603598	97.102273	-53.519673	65.504898
35065		0.314585	0.724134	0.111359	0.603544	97.104945	-53.516673	65.489767
35066		0.314650	0.724118	0.111282	0.603543	97.097309	-53.518045	65.485234
35067		0.314636	0.724076	0.111282	0.603601	97.086106	-53.521480	65.497800
35068		0.314734	0.724041	0.111229	0.603602	97.073440	-53.518582	65.497321
35069		0.314816	0.724053	0.111193	0.603552	97.074196	-53.513357	65.486080
35070		0.314824	0.724063	0.111228	0.603529	97.077898	-53.509136	65.484485
35071		0.314851	0.724108	0.111236	0.603459	97.089977	-53.503559	65.470522
35072		0.314826	0.724123	0.111286	0.603445	97.095955	-53.500886	65.470851
35073		0.314809	0.724120	0.111305	0.603454	97.095785	-53.500933	65.474129
35074		0.314832	0.724093	0.111298	0.603476	97.087934	-53.500805	65.479404
35075		0.314932	0.724078	0.111196	0.603460	97.079429	-53.500870	65.470426
35076		0.314946	0.724050	0.111189	0.603488	97.071224	-53.501662	65.476904
35077		0.314960	0.724028	0.111219	0.603501	97.066056	-53.498892	65.483323
35078		0.314971	0.724030	0.111277	0.603483	97.067944	-53.492753	65.485183
35079		0.314993	0.724048	0.111307	0.603445	97.073324	-53.487140	65.480226
35080		0.315003	0.724043	0.111351	0.603437	97.073062	-53.482696	65.483178
35081		0.315077	0.724043	0.111306	0.603406	97.070766	-53.479594	65.475024
35082		0.315096	0.724032	0.111304	0.603409	97.067490	-53.478427	65.476445
35083		0.315054	0.724009	0.111338	0.603454	97.062613	-53.480718	65.487994
35084		0.315057	0.724000	0.111344	0.603461	97.060472	-53.480328	65.490383
35085		0.315001	0.723983	0.111383	0.603504	97.057742	-53.483039	65.501426
35086		0.315044	0.723966	0.111382	0.603502	97.052440	-53.479996	65.502842
35087		0.315004	0.723926	0.111433	0.603561	97.043708	-53.481365	65.519431
35088		0.315070	0.723895	0.111380	0.603573	97.032714	-53.481272	65.520160
35089		0.315194	0.723888	0.111268	0.603538	97.025568	-53.479727	65.506821
35090		0.315209	0.723887	0.111250	0.603535	97.024403	-53.479855	65.505149
35091		0.315134	0.723910	0.111289	0.603539	97.033100	-53.482415	65.506500
35092		0.315070	0.723954	0.111321	0.603513	97.047125	-53.483429	65.500753
35093		0.314929	0.723975	0.111399	0.603548	97.057159	-53.488993	65.509914
35094		0.314893	0.723975	0.111397	0.603568	97.057566	-53.492516	65.512579
35095		0.314832	0.723964	0.111426	0.603606	97.056574	-53.496283	65.521513
35096		0.314825	0.723948	0.111417	0.603632	97.051929	-53.498518	65.526208
35097		0.314807	0.723921	0.111398	0.603677	97.044361	-53.503283	65.533932
35098		0.314797	0.723891	0.111354	0.603726	97.035111	-53.509534	65.540463
35099		0.314848	0.723856	0.111236	0.603764	97.021244	-53.516783	65.540170
35100		0.314870	0.723815	0.111162	0.603815	97.007559	-53.523180	65.545875
35101		0.314820	0.723767	0.111102	0.603909	96.993747	-53.535437	65.559408
35102		0.314754	0.723750	0.111094	0.603966	96.989687	-53.543234	65.568960
35103		0.314622	0.723746	0.111157	0.604027	96.992710	-53.550360	65.583034
35104		0.314520	0.723756	0.111200	0.604060	96.998261	-53.555730	65.590280
35105		0.314399	0.723763	0.111254	0.604105	97.003563	-53.562092	65.600427
35106		0.314368	0.723767	0.111221	0.604122	97.004287	-53.567685	65.599888
35107		0.314393	0.723741	0.111128	0.604158	96.994039	-53.574717	65.600245
35108		0.314425	0.723722	0.111021	0.604183	96.985299	-53.581857	65.597338
35109		0.314472	0.723670	0.110846	0.604254	96.965171	-53.595199	65.598969
35110		0.314471	0.723649	0.110725	0.604302	96.955922	-53.606837	65.598401
35111		0.314393	0.723616	0.110693	0.604387	96.947393	-53.618513	65.611535
35112		0.314357	0.723609	0.110669	0.604418	96.945317	-53.624363	65.614975
35113		0.314301	0.723628	0.110683	0.604423	96.951671	-53.627554	65.614810
35114		0.314215	0.723664	0.110753	0.604411	96.964983	-53.627731	65.615033
35115		0.314202	0.723705	0.110761	0.604368	96.976432	-53.626219	65.605181
35116		0.314163	0.723742	0.110770	0.604342	96.987543	-53.627247	65.598340
35117		0.314148	0.723752	0.110762	0.604340	96.990156	-53.628788	65.596391
35118		0.314209	0.723744	0.110661	0.604335	96.984336	-53.632101	65.588404
35119		0.314255	0.723715	0.110580	0.604361	96.973270	-53.636321	65.588793
35120		0.314282	0.723713	0.110510	0.604362	96.970327	-53.639930	65.583450
35121		0.314274	0.723721	0.110466	0.604365	96.971291	-53.644052	65.579608
35122		0.314262	0.723735	0.110447	0.604358	96.974881	-53.646112	65.575554
35123		0.314171	0.723744	0.110520	0.604381	96.980725	-53.647909	65.583944
35124		0.314118	0.723789	0.110529	0.604353	96.994215	-53.649897	65.575912
35125		0.314071	0.723834	0.110540	0.604322	97.007424	-53.651067	65.567694
35126		0.314025	0.723875	0.110541	0.604297	97.019421	-53.653201	65.559907
35127		0.314096	0.723915	0.110440	0.604230	97.026433	-53.653220	65.538081
35128		0.314108	0.723944	0.110389	0.604199	97.032615	-53.655061	65.526579
35129		0.314184	0.723990	0.110264	0.604127	97.040405	-53.656357	65.501453
35130		0.314218	0.724026	0.110181	0.604080	97.047633	-53.658418	65.484308
35131		0.314202	0.724065	0.110159	0.604047	97.057711	-53.659928	65.473705
35132		0.314221	0.724110	0.110091	0.603995	97.067930	-53.661690	65.456072
35133		0.314285	0.724168	0.109978	0.603913	97.079495	-53.662367	65.429274
35134		0.314309	0.724211	0.109948	0.603854	97.090031	-53.660511	65.414014
35135		0.314242	0.724257	0.109966	0.603830	97.104331	-53.662943	65.407114
35136		0.314203	0.724302	0.109997	0.603792	97.117889	-53.661632	65.399537
35137		0.314122	0.724346	0.110075	0.603767	97.133427	-53.660278	65.397634
35138		0.314080	0.724406	0.110127	0.603707	97.152164	-53.656675	65.386923
35139		0.314077	0.724472	0.110126	0.603629	97.170238	-53.653688	65.368822
35140		0.314072	0.724517	0.110149	0.603573	97.183350	-53.649757	65.357885
35141		0.314111	0.724569	0.110115	0.603497	97.195891	-53.646308	65.338903
35142		0.314128	0.724644	0.110112	0.603398	97.216158	-53.641109	65.316686
35143		0.314132	0.724725	0.110086	0.603304	97.237512	-53.638850	65.292644
35144		0.314139	0.724792	0.110054	0.603226	97.254678	-53.637518	65.272012
35145		0.314167	0.724855	0.109974	0.603150	97.269179	-53.638452	65.248241
35146		0.314191	0.724891	0.109915	0.603106	97.276949	-53.639530	65.233379
35147		0.314337	0.724967	0.109738	0.602970	97.290457	-53.637066	65.191849
35148		0.314345	0.725012	0.109708	0.602918	97.301803	-53.636580	65.177218
35149		0.314406	0.725070	0.109625	0.602830	97.314453	-53.634904	65.151999
35150		0.314389	0.725130	0.109662	0.602761	97.332054	-53.630196	65.138802
35151		0.314350	0.725182	0.109697	0.602712	97.347902	-53.628155	65.129283
35152		0.314343	0.725221	0.109728	0.602662	97.359734	-53.624014	65.120533
35153		0.314273	0.725242	0.109787	0.602664	97.368059	-53.624498	65.123402
35154		0.314243	0.725259	0.109791	0.602658	97.373389	-53.626056	65.121011
35155		0.314216	0.725268	0.109792	0.602661	97.376442	-53.628041	65.120548
35156		0.314198	0.725244	0.109770	0.602704	97.369317	-53.632917	65.127507
35157		0.314200	0.725184	0.109733	0.602781	97.352094	-53.639013	65.141684
35158		0.314232	0.725110	0.109716	0.602856	97.330808	-53.641420	65.158843
35159		0.314277	0.725065	0.109729	0.602885	97.318107	-53.638423	65.168665
35160		0.314257	0.725035	0.109828	0.602913	97.313010	-53.633229	65.183778
35161		0.314164	0.725036	0.110006	0.602928	97.319694	-53.626595	65.200087
35162		0.314067	0.725058	0.110169	0.602922	97.331917	-53.620553	65.210053
35163		0.314072	0.725095	0.110237	0.602862	97.343884	-53.612242	65.203133
35164		0.314106	0.725083	0.110259	0.602855	97.340631	-53.607814	65.205047
35165		0.314277	0.725041	0.110133	0.602841	97.322614	-53.604823	65.197354
35166		0.314434	0.724943	0.109988	0.602903	97.289197	-53.607610	65.204762
35167		0.314601	0.724849	0.109885	0.602948	97.257909	-53.605670	65.212722
35168		0.314678	0.724762	0.109860	0.603016	97.232275	-53.604932	65.229494
35169		0.314741	0.724686	0.109871	0.603073	97.210789	-53.601977	65.246353
35170		0.314729	0.724603	0.109961	0.603163	97.190767	-53.599701	65.275113
35171		0.314756	0.724515	0.110010	0.603246	97.167677	-53.597509	65.299985
35172		0.314782	0.724416	0.110063	0.603341	97.141745	-53.595526	65.328143
35173		0.314860	0.724290	0.110034	0.603456	97.105368	-53.597104	65.355328
35174		0.315016	0.724172	0.109929	0.603536	97.067606	-53.597572	65.370548
35175		0.315156	0.724044	0.109818	0.603636	97.027386	-53.600494	65.389356
35176		0.315355	0.723943	0.109658	0.603683	96.991984	-53.600787	65.393687
35177		0.315553	0.723830	0.109497	0.603744	96.953480	-53.601689	65.401295
35178		0.315725	0.723730	0.109382	0.603795	96.920352	-53.600533	65.409590
35179		0.315803	0.723667	0.109327	0.603840	96.900236	-53.601127	65.418248
35180		0.315808	0.723594	0.109348	0.603921	96.880914	-53.602639	65.439020
35181		0.315862	0.723528	0.109346	0.603972	96.861892	-53.600998	65.453117
35182		0.315876	0.723464	0.109403	0.604030	96.845990	-53.598002	65.472638
35183		0.316025	0.723364	0.109323	0.604088	96.813941	-53.595997	65.484846
35184		0.316241	0.723245	0.109194	0.604140	96.774606	-53.592760	65.494208
35185		0.316489	0.723104	0.109025	0.604209	96.727560	-53.591103	65.505114
35186		0.316837	0.723008	0.108801	0.604183	96.689514	-53.582566	65.493358
35187		0.317130	0.722973	0.108616	0.604104	96.670320	-53.572618	65.470740
35188		0.317313	0.723008	0.108547	0.603978	96.675227	-53.559580	65.443414
35189		0.317430	0.723104	0.108554	0.603801	96.699839	-53.543184	65.408447
35190		0.317519	0.723187	0.108632	0.603640	96.723538	-53.523753	65.382840
35191		0.317580	0.723264	0.108722	0.603499	96.746160	-53.506362	65.361703
35192		0.317736	0.723309	0.108735	0.603361	96.756355	-53.488277	65.338346
35193		0.317985	0.723341	0.108657	0.603206	96.759092	-53.469885	65.306341
35194		0.318219	0.723353	0.108567	0.603084	96.756166	-53.454941	65.280450
35195		0.318515	0.723408	0.108401	0.602892	96.762066	-53.438532	65.233840
35196		0.318674	0.723470	0.108330	0.602745	96.774609	-53.426512	65.200715
35197		0.318863	0.723572	0.108232	0.602542	96.796544	-53.411979	65.153264
35198		0.319015	0.723638	0.108167	0.602393	96.810524	-53.399799	65.119948
35199		0.319221	0.723722	0.108028	0.602208	96.826284	-53.388055	65.073748
35200		0.319336	0.723781	0.107965	0.602087	96.838857	-53.379537	65.045252
35201		0.319476	0.723819	0.107872	0.601984	96.844520	-53.372405	65.019176
35202		0.319579	0.723844	0.107813	0.601911	96.847900	-53.366536	65.001434
35203		0.319729	0.723855	0.107709	0.601836	96.845814	-53.360672	64.981231
35204		0.319803	0.723847	0.107668	0.601813	96.841479	-53.357590	64.975525
35205		0.319856	0.723850	0.107610	0.601791	96.839894	-53.357413	64.967475
35206		0.319789	0.723848	0.107692	0.601815	96.842627	-53.356734	64.977581
35207		0.319663	0.723843	0.107806	0.601867	96.846382	-53.359178	64.994714
35208		0.319501	0.723848	0.107972	0.601918	96.854816	-53.359910	65.014703
35209		0.319328	0.723835	0.108110	0.602000	96.857775	-53.364920	65.038821
35210		0.319205	0.723789	0.108175	0.602110	96.848725	-53.373371	65.064577
35211		0.319096	0.723719	0.108178	0.602251	96.831654	-53.387058	65.092025
35212		0.319035	0.723606	0.108089	0.602434	96.799407	-53.406182	65.122885
35213		0.319048	0.723468	0.107913	0.602626	96.756502	-53.427344	65.150543
35214		0.319027	0.723289	0.107763	0.602879	96.703901	-53.451403	65.193248
35215		0.318969	0.723126	0.107666	0.603121	96.657826	-53.473483	65.237114
35216		0.318895	0.722986	0.107634	0.603334	96.619831	-53.490348	65.279612
35217		0.318695	0.722874	0.107726	0.603558	96.594924	-53.506957	65.330704
35218		0.318581	0.722779	0.107765	0.603725	96.571666	-53.519068	65.367812
35219		0.318503	0.722677	0.107774	0.603886	96.545499	-53.530835	65.402078
35220		0.318525	0.722579	0.107660	0.604012	96.515187	-53.543529	65.421343
35221		0.318603	0.722441	0.107443	0.604175	96.470185	-53.561817	65.441782
35222		0.318744	0.722300	0.107203	0.604311	96.422912	-53.576268	65.456901
35223		0.318868	0.722211	0.106979	0.604393	96.390296	-53.588395	65.460149
35224		0.318885	0.722129	0.106886	0.604497	96.365094	-53.598790	65.476346
35225		0.318842	0.722054	0.106919	0.604603	96.346206	-53.603728	65.502039
35226		0.318763	0.722004	0.107060	0.604681	96.337500	-53.601616	65.529646
35227		0.318690	0.721975	0.107271	0.604717	96.336662	-53.591668	65.554543
35228		0.318600	0.721953	0.107584	0.604735	96.340928	-53.574261	65.584074
35229		0.318486	0.721986	0.107904	0.604697	96.360983	-53.555704	65.600588
35230		0.318361	0.722021	0.108287	0.604654	96.383181	-53.532738	65.621021
35231		0.318325	0.722085	0.108560	0.604547	96.409120	-53.509339	65.620595
35232		0.318307	0.722134	0.108811	0.604453	96.429967	-53.487021	65.621835
35233		0.318326	0.722141	0.108988	0.604403	96.436779	-53.469562	65.627799
35234		0.318452	0.722139	0.109068	0.604324	96.436890	-53.450890	65.622685
35235		0.318657	0.722168	0.109030	0.604189	96.440537	-53.433346	65.597149
35236		0.318665	0.722186	0.109109	0.604149	96.447612	-53.424915	65.595805
35237		0.318729	0.722186	0.109171	0.604104	96.448499	-53.413569	65.594151
35238		0.318678	0.722167	0.109308	0.604128	96.448243	-53.407476	65.610301
35239		0.318704	0.722193	0.109397	0.604068	96.457390	-53.396014	65.605992
35240		0.318602	0.722204	0.109577	0.604075	96.467256	-53.389514	65.620119
35241		0.318598	0.722230	0.109689	0.604026	96.477595	-53.378889	65.619292
35242		0.318557	0.722263	0.109828	0.603983	96.491121	-53.369182	65.620828
35243		0.318548	0.722306	0.109917	0.603920	96.505636	-53.360083	65.614265
35244		0.318575	0.722348	0.109970	0.603846	96.518266	-53.350887	65.603497
35245		0.318704	0.722410	0.109900	0.603716	96.531108	-53.341670	65.572909
35246		0.318723	0.722478	0.109951	0.603616	96.550689	-53.332128	65.555598
35247		0.318643	0.722530	0.110095	0.603569	96.570307	-53.324575	65.555016
35248		0.318579	0.722597	0.110238	0.603497	96.593418	-53.314856	65.549225
35249		0.318480	0.722659	0.110406	0.603445	96.616604	-53.306655	65.548693
