// General information: 
//  MT Manager version: 2022.2.0 
//  XDA version: 2022.2.0 build 7381 rev 124627 built on 2023-07-19
// Device information: 
//  DeviceId: 10B4151A
//  ProductCode: MTW2-3A7G6
//  Firmware Version: 4.14.0
//  Hardware Version: 3.0.0
// Device settings: 
//  Filter Profile: human(46.1)
//  Option Flags: Orientation Smoother Disabled, Position/Velocity Smoother Disabled, Continuous Zero Rotation Update Disabled, AHS Disabled, ICC Disabled
// Coordinate system: ENU
PacketCounter	SampleTimeFine	Quat_q0	Quat_q1	Quat_q2	Quat_q3	Roll	Pitch	Yaw
34038		0.849583	-0.043637	-0.524042	-0.041040	-3.984549	-63.382329	-3.070491
34039		0.849600	-0.043747	-0.524004	-0.041055	-4.006619	-63.377643	-3.058946
34040		0.849628	-0.043742	-0.523963	-0.041004	-4.012182	-63.371907	-3.048847
34041		0.849651	-0.043817	-0.523917	-0.041034	-4.024352	-63.366150	-3.045473
34042		0.849701	-0.043820	-0.523838	-0.041008	-4.028422	-63.355323	-3.039577
34043		0.849746	-0.043793	-0.523773	-0.040926	-4.033530	-63.346162	-3.025576
34044		0.849807	-0.043837	-0.523670	-0.040932	-4.042029	-63.332496	-3.021422
34045		0.849858	-0.043777	-0.523601	-0.040828	-4.042995	-63.322505	-3.006940
34046		0.849905	-0.043815	-0.523520	-0.040848	-4.048241	-63.311825	-3.006650
34047		0.849946	-0.043885	-0.523446	-0.040867	-4.060923	-63.302153	-3.001619
34048		0.849990	-0.043912	-0.523372	-0.040866	-4.066739	-63.292367	-2.998081
34049		0.850016	-0.043841	-0.523346	-0.040747	-4.067273	-63.288016	-2.981715
34050		0.850040	-0.043864	-0.523307	-0.040727	-4.074736	-63.282690	-2.974644
34051		0.850059	-0.043960	-0.523263	-0.040772	-4.089394	-63.277402	-2.971801
34052		0.850082	-0.043991	-0.523223	-0.040779	-4.095210	-63.272177	-2.969270
34053		0.850094	-0.044125	-0.523186	-0.040862	-4.113067	-63.268014	-2.969516
34054		0.850123	-0.044165	-0.523136	-0.040852	-4.123118	-63.261397	-2.962028
34055		0.850140	-0.044182	-0.523113	-0.040772	-4.137339	-63.257920	-2.942621
34056		0.850167	-0.044226	-0.523067	-0.040753	-4.149456	-63.251905	-2.932744
34057		0.850169	-0.044330	-0.523051	-0.040804	-4.165072	-63.250261	-2.930097
34058		0.850193	-0.044362	-0.523011	-0.040783	-4.174775	-63.244903	-2.921307
34059		0.850201	-0.044370	-0.523001	-0.040739	-4.182406	-63.243448	-2.910711
34060		0.850208	-0.044376	-0.522991	-0.040712	-4.187207	-63.242004	-2.904246
34061		0.850207	-0.044519	-0.522973	-0.040815	-4.204503	-63.240480	-2.907439
34062		0.850193	-0.044521	-0.522997	-0.040799	-4.207093	-63.243629	-2.903689
34063		0.850180	-0.044527	-0.523022	-0.040735	-4.216873	-63.246779	-2.888995
34064		0.850166	-0.044529	-0.523046	-0.040720	-4.219464	-63.249929	-2.885243
34065		0.850145	-0.044684	-0.523057	-0.040841	-4.236952	-63.252494	-2.890799
34066		0.850131	-0.044712	-0.523080	-0.040818	-4.246296	-63.255553	-2.881824
34067		0.850113	-0.044797	-0.523097	-0.040862	-4.258840	-63.258399	-2.879921
34068		0.850113	-0.044823	-0.523099	-0.040827	-4.269164	-63.258490	-2.868849
34069		0.850098	-0.044855	-0.523121	-0.040820	-4.277025	-63.261618	-2.863066
34070		0.850097	-0.044840	-0.523127	-0.040780	-4.279110	-63.262089	-2.856350
34071		0.850116	-0.044783	-0.523111	-0.040652	-4.283755	-63.259186	-2.836294
34072		0.850144	-0.044760	-0.523071	-0.040607	-4.284781	-63.253494	-2.829741
34073		0.850177	-0.044820	-0.523007	-0.040665	-4.289816	-63.245287	-2.834641
34074		0.850219	-0.044801	-0.522942	-0.040653	-4.287181	-63.236507	-2.834871
34075		0.850260	-0.044732	-0.522884	-0.040609	-4.277944	-63.228241	-2.834741
34076		0.850311	-0.044659	-0.522810	-0.040587	-4.264737	-63.217901	-2.840236
34077		0.850370	-0.044463	-0.522745	-0.040399	-4.247338	-63.207553	-2.825717
34078		0.850435	-0.044409	-0.522643	-0.040395	-4.235875	-63.193693	-2.832560
34079		0.850503	-0.044332	-0.522545	-0.040320	-4.228810	-63.179802	-2.827118
34080		0.850582	-0.044302	-0.522420	-0.040297	-4.225056	-63.162881	-2.826654
34081		0.850648	-0.044273	-0.522317	-0.040281	-4.220692	-63.148856	-2.827469
34082		0.850738	-0.044233	-0.522174	-0.040288	-4.210911	-63.129500	-2.834817
34083		0.850827	-0.044090	-0.522050	-0.040164	-4.195962	-63.111741	-2.827770
34084		0.850895	-0.044031	-0.521944	-0.040169	-4.182500	-63.097267	-2.836928
34085		0.850967	-0.044062	-0.521816	-0.040280	-4.174152	-63.080738	-2.857381
34086		0.851067	-0.044038	-0.521650	-0.040327	-4.162158	-63.058615	-2.871604
34087		0.851156	-0.044007	-0.521506	-0.040353	-4.151868	-63.039345	-2.881785
34088		0.851226	-0.043938	-0.521398	-0.040350	-4.137154	-63.024517	-2.890666
34089		0.851294	-0.044117	-0.521255	-0.040552	-4.148792	-63.006940	-2.911113
34090		0.851404	-0.044250	-0.521057	-0.040661	-4.162714	-62.981238	-2.917798
34091		0.851483	-0.044225	-0.520929	-0.040653	-4.158166	-62.964021	-2.919843
34092		0.851468	-0.044091	-0.520971	-0.040590	-4.137661	-62.968826	-2.923815
34093		0.851472	-0.044017	-0.520980	-0.040466	-4.138134	-62.969162	-2.906782
34094		0.851469	-0.044101	-0.520976	-0.040488	-4.153274	-62.969113	-2.900542
34095		0.851448	-0.044168	-0.520999	-0.040564	-4.157674	-62.972765	-2.908004
34096		0.851452	-0.044167	-0.520992	-0.040580	-4.155487	-62.971859	-2.911438
34097		0.851470	-0.043998	-0.520984	-0.040474	-4.132909	-62.969689	-2.911092
34098		0.851456	-0.043826	-0.521024	-0.040440	-4.100550	-62.974368	-2.926233
34099		0.851433	-0.043810	-0.521052	-0.040598	-4.076359	-62.978745	-2.962170
34100		0.851426	-0.043634	-0.521078	-0.040586	-4.040085	-62.981570	-2.982709
34101		0.851438	-0.043388	-0.521090	-0.040442	-4.005917	-62.981722	-2.984317
34102		0.851463	-0.043250	-0.521062	-0.040437	-3.977015	-62.977358	-3.001307
34103		0.851488	-0.043158	-0.521030	-0.040410	-3.960757	-62.972705	-3.007712
34104		0.851523	-0.043081	-0.520980	-0.040413	-3.943683	-62.965688	-3.018716
34105		0.851553	-0.043000	-0.520940	-0.040366	-3.932438	-62.959849	-3.019370
34106		0.851578	-0.042930	-0.520907	-0.040357	-3.918398	-62.955039	-3.026901
34107		0.851577	-0.042837	-0.520917	-0.040323	-3.902952	-62.956006	-3.031738
34108		0.851598	-0.042762	-0.520889	-0.040338	-3.884902	-62.951954	-3.044831
34109		0.851600	-0.042842	-0.520868	-0.040465	-3.885314	-62.950090	-3.061665
34110		0.851601	-0.042811	-0.520867	-0.040511	-3.872467	-62.950016	-3.075797
34111		0.851588	-0.042905	-0.520869	-0.040665	-3.872450	-62.951237	-3.096478
34112		0.851603	-0.042901	-0.520840	-0.040726	-3.863607	-62.947617	-3.110221
34113		0.851619	-0.042984	-0.520795	-0.040863	-3.863500	-62.942496	-3.128690
34114		0.851643	-0.042994	-0.520751	-0.040912	-3.859037	-62.936856	-3.138158
34115		0.851661	-0.043043	-0.520710	-0.041001	-3.857853	-62.932035	-3.150941
34116		0.851694	-0.043056	-0.520652	-0.041041	-3.855548	-62.924398	-3.157847
34117		0.851671	-0.043009	-0.520694	-0.041047	-3.844605	-62.929873	-3.165300
34118		0.851673	-0.043020	-0.520688	-0.041070	-3.843781	-62.929315	-3.168924
34119		0.851669	-0.043028	-0.520696	-0.041054	-3.847700	-62.930218	-3.164354
34120		0.851676	-0.043103	-0.520673	-0.041107	-3.856876	-62.927760	-3.165876
34121		0.851635	-0.043088	-0.520746	-0.041045	-3.861874	-62.937246	-3.154370
34122		0.851611	-0.043175	-0.520775	-0.041094	-3.874022	-62.941578	-3.153475
34123		0.851604	-0.043273	-0.520770	-0.041181	-3.883678	-62.941771	-3.159199
34124		0.851552	-0.043323	-0.520846	-0.041248	-3.885673	-62.952399	-3.166807
34125		0.851518	-0.043488	-0.520878	-0.041374	-3.904629	-62.957926	-3.172139
34126		0.851476	-0.043531	-0.520937	-0.041453	-3.903619	-62.966341	-3.183195
34127		0.851431	-0.043726	-0.520977	-0.041679	-3.915842	-62.973466	-3.205970
34128		0.851415	-0.043790	-0.520991	-0.041755	-3.919671	-62.975995	-3.213865
34129		0.851389	-0.043891	-0.521016	-0.041862	-3.927238	-62.980169	-3.223548
34130		0.851370	-0.043945	-0.521038	-0.041917	-3.931618	-62.983592	-3.228210
34131		0.851340	-0.044135	-0.521056	-0.042099	-3.948607	-62.987586	-3.242188
34132		0.851331	-0.044193	-0.521063	-0.042144	-3.955148	-62.989014	-3.244290
34133		0.851299	-0.044293	-0.521098	-0.042244	-3.963479	-62.994520	-3.252567
34134		0.851280	-0.044370	-0.521117	-0.042310	-3.971604	-62.997632	-3.256364
34135		0.851260	-0.044357	-0.521156	-0.042260	-3.975339	-63.002617	-3.247272
34136		0.851261	-0.044400	-0.521147	-0.042291	-3.980477	-63.001731	-3.248325
34137		0.851230	-0.044615	-0.521163	-0.042506	-3.998339	-63.005659	-3.266256
34138		0.851212	-0.044645	-0.521188	-0.042521	-4.002868	-63.009268	-3.265531
34139		0.851156	-0.044895	-0.521239	-0.042764	-4.024703	-63.018132	-3.284684
34140		0.851110	-0.044930	-0.521307	-0.042803	-4.027269	-63.027680	-3.288165
34141		0.851055	-0.045112	-0.521368	-0.042961	-4.045736	-63.037237	-3.297946
34142		0.851009	-0.045159	-0.521438	-0.042979	-4.053499	-63.046997	-3.295392
34143		0.850959	-0.045171	-0.521519	-0.042965	-4.057943	-63.057896	-3.290661
34144		0.850902	-0.045192	-0.521611	-0.042963	-4.062790	-63.070201	-3.287204
34145		0.850845	-0.045216	-0.521703	-0.042940	-4.071040	-63.082596	-3.278866
34146		0.850802	-0.045245	-0.521774	-0.042906	-4.082081	-63.092142	-3.267257
34147		0.850761	-0.045273	-0.521840	-0.042871	-4.092625	-63.100963	-3.255925
34148		0.850737	-0.045317	-0.521880	-0.042833	-4.107247	-63.106252	-3.241781
34149		0.850714	-0.045475	-0.521895	-0.042934	-4.127998	-63.109352	-3.242527
34150		0.850719	-0.045533	-0.521883	-0.042920	-4.142418	-63.107913	-3.231937
34151		0.850711	-0.045846	-0.521844	-0.043226	-4.169486	-63.105360	-3.256509
34152		0.850714	-0.045896	-0.521832	-0.043244	-4.177831	-63.104077	-3.253884
34153		0.850694	-0.046032	-0.521844	-0.043364	-4.191377	-63.106720	-3.261670
34154		0.850690	-0.046058	-0.521845	-0.043387	-4.194024	-63.107120	-3.263110
34155		0.850658	-0.046313	-0.521855	-0.043635	-4.216239	-63.110628	-3.282846
34156		0.850664	-0.046344	-0.521842	-0.043648	-4.221042	-63.109030	-3.281738
34157		0.850642	-0.046407	-0.521869	-0.043665	-4.232578	-63.113093	-3.276858
34158		0.850657	-0.046501	-0.521837	-0.043669	-4.252188	-63.109071	-3.265440
34159		0.850655	-0.046647	-0.521819	-0.043767	-4.270861	-63.107755	-3.267172
34160		0.850657	-0.046693	-0.521812	-0.043751	-4.282931	-63.106961	-3.257638
34161		0.850659	-0.046772	-0.521801	-0.043761	-4.298470	-63.105740	-3.249488
34162		0.850694	-0.046860	-0.521734	-0.043786	-4.314188	-63.097279	-3.243355
34163		0.850751	-0.046682	-0.521679	-0.043535	-4.308715	-63.087855	-3.213158
34164		0.850782	-0.046735	-0.521623	-0.043528	-4.321235	-63.080598	-3.204650
34165		0.850808	-0.046833	-0.521571	-0.043552	-4.339118	-63.074046	-3.197049
34166		0.850846	-0.046879	-0.521506	-0.043532	-4.351360	-63.065446	-3.187081
34167		0.850894	-0.046712	-0.521462	-0.043300	-4.346096	-63.057720	-3.159155
34168		0.851000	-0.046808	-0.521280	-0.043315	-4.364393	-63.033611	-3.150431
34169		0.851021	-0.046900	-0.521234	-0.043338	-4.381082	-63.027977	-3.143425
34170		0.851073	-0.046934	-0.521149	-0.043309	-4.392024	-63.016428	-3.133132
34171		0.851145	-0.046902	-0.521039	-0.043245	-4.393386	-63.001243	-3.124071
34172		0.851233	-0.046877	-0.520900	-0.043213	-4.391886	-62.982319	-3.121071
34173		0.851365	-0.046954	-0.520673	-0.043262	-4.401726	-62.952404	-3.122237
34174		0.851438	-0.046981	-0.520551	-0.043273	-4.405836	-62.936185	-3.121524
34175		0.851484	-0.047010	-0.520470	-0.043308	-4.407208	-62.925518	-3.125635
34176		0.851541	-0.047059	-0.520371	-0.043335	-4.413918	-62.912583	-3.125481
34177		0.851596	-0.046986	-0.520297	-0.043217	-4.413641	-62.901806	-3.110081
34178		0.851621	-0.047029	-0.520250	-0.043246	-4.418980	-62.895714	-3.110826
34179		0.851646	-0.047210	-0.520185	-0.043338	-4.445602	-62.888191	-3.107022
34180		0.851673	-0.047316	-0.520128	-0.043372	-4.463703	-62.881022	-3.100742
34181		0.851636	-0.047396	-0.520182	-0.043367	-4.481775	-62.888641	-3.088871
34182		0.851597	-0.047517	-0.520235	-0.043354	-4.509537	-62.896144	-3.069990
34183		0.851534	-0.047593	-0.520337	-0.043294	-4.533984	-62.909693	-3.046646
34184		0.851451	-0.047725	-0.520460	-0.043307	-4.560999	-62.926719	-3.031520
34185		0.851350	-0.048061	-0.520575	-0.043530	-4.604178	-62.944686	-3.034679
34186		0.851294	-0.048203	-0.520652	-0.043562	-4.630826	-62.955599	-3.022458
34187		0.851247	-0.048248	-0.520727	-0.043517	-4.646550	-62.965676	-3.006559
34188		0.851208	-0.048262	-0.520792	-0.043483	-4.654350	-62.974255	-2.996989
34189		0.851171	-0.048363	-0.520840	-0.043529	-4.670123	-62.981240	-2.993306
34190		0.851151	-0.048392	-0.520873	-0.043492	-4.681431	-62.985543	-2.981287
34191		0.851154	-0.048424	-0.520868	-0.043455	-4.692967	-62.984852	-2.969360
34192		0.851178	-0.048448	-0.520829	-0.043437	-4.700445	-62.979523	-2.962400
34193		0.851225	-0.048694	-0.520711	-0.043647	-4.725563	-62.965763	-2.975659
34194		0.851313	-0.048737	-0.520567	-0.043612	-4.738746	-62.946332	-2.963418
34195		0.851437	-0.048797	-0.520362	-0.043556	-4.758314	-62.918699	-2.944618
34196		0.851572	-0.048823	-0.520143	-0.043503	-4.770122	-62.889123	-2.931069
34197		0.851718	-0.048865	-0.519905	-0.043441	-4.786611	-62.857040	-2.913403
34198		0.851842	-0.048851	-0.519710	-0.043355	-4.794013	-62.830293	-2.898071
34199		0.851952	-0.048908	-0.519527	-0.043333	-4.808588	-62.805747	-2.886826
34200		0.852086	-0.048904	-0.519314	-0.043253	-4.817342	-62.776718	-2.871611
34201		0.852216	-0.048991	-0.519092	-0.043270	-4.832809	-62.747308	-2.865268
34202		0.852356	-0.048963	-0.518872	-0.043166	-4.839750	-62.717202	-2.847772
34203		0.852499	-0.049148	-0.518610	-0.043274	-4.864239	-62.683315	-2.848391
34204		0.852641	-0.049106	-0.518394	-0.043128	-4.873443	-62.653310	-2.823900
34205		0.852755	-0.049265	-0.518183	-0.043220	-4.894506	-62.626067	-2.824246
34206		0.852862	-0.049254	-0.518018	-0.043103	-4.906569	-62.603297	-2.801883
34207		0.852912	-0.049153	-0.517955	-0.042987	-4.899802	-62.593840	-2.790715
34208		0.852942	-0.049162	-0.517909	-0.042941	-4.907641	-62.587380	-2.779848
34209		0.852960	-0.049293	-0.517863	-0.042987	-4.929217	-62.581991	-2.773170
34210		0.852974	-0.049337	-0.517835	-0.042989	-4.938272	-62.578326	-2.767964
34211		0.852958	-0.049537	-0.517833	-0.043108	-4.965531	-62.579406	-2.767456
34212		0.852975	-0.049609	-0.517796	-0.043126	-4.978446	-62.574779	-2.762105
34213		0.852994	-0.049575	-0.517777	-0.043012	-4.985837	-62.571546	-2.742396
34214		0.853025	-0.049636	-0.517719	-0.043021	-4.997436	-62.563965	-2.736740
34215		0.853062	-0.049588	-0.517671	-0.042936	-4.997823	-62.556898	-2.725402
34216		0.853120	-0.049644	-0.517569	-0.042951	-5.007430	-62.543499	-2.721905
34217		0.853179	-0.049829	-0.517442	-0.043086	-5.028745	-62.527841	-2.727552
34218		0.853233	-0.049906	-0.517344	-0.043115	-5.041011	-62.515118	-2.724482
34219		0.853264	-0.049882	-0.517304	-0.043002	-5.050144	-62.509034	-2.703890
34220		0.853303	-0.049982	-0.517229	-0.043019	-5.068789	-62.499428	-2.695207
34221		0.853384	-0.050032	-0.517092	-0.042987	-5.083096	-62.481069	-2.682751
34222		0.853488	-0.050116	-0.516913	-0.042970	-5.102228	-62.457275	-2.669612
34223		0.853548	-0.050132	-0.516821	-0.042894	-5.114792	-62.444423	-2.652199
34224		0.853623	-0.050199	-0.516691	-0.042871	-5.131332	-62.427156	-2.639629
34225		0.853664	-0.050155	-0.516639	-0.042735	-5.139284	-62.419228	-2.616798
34226		0.853730	-0.050179	-0.516531	-0.042698	-5.148580	-62.404610	-2.606615
34227		0.853816	-0.050280	-0.516375	-0.042737	-5.164271	-62.384252	-2.603038
34228		0.853907	-0.050323	-0.516220	-0.042745	-5.171520	-62.363653	-2.600347
34229		0.853929	-0.050511	-0.516151	-0.042926	-5.187782	-62.356113	-2.615113
34230		0.853946	-0.050512	-0.516124	-0.042912	-5.189582	-62.352473	-2.612234
34231		0.853948	-0.050489	-0.516126	-0.042861	-5.191237	-62.352319	-2.604417
34232		0.853972	-0.050472	-0.516090	-0.042837	-5.190543	-62.347368	-2.601786
34233		0.853967	-0.050433	-0.516108	-0.042766	-5.191577	-62.349222	-2.591553
34234		0.853948	-0.050404	-0.516146	-0.042729	-5.190336	-62.354019	-2.587190
34235		0.853931	-0.050176	-0.516222	-0.042423	-5.181600	-62.361552	-2.551081
34236		0.853916	-0.050173	-0.516249	-0.042391	-5.185042	-62.365001	-2.544706
34237		0.853876	-0.050256	-0.516302	-0.042457	-5.194510	-62.372720	-2.547539
34238		0.853866	-0.050255	-0.516322	-0.042421	-5.198984	-62.375153	-2.539941
34239		0.853831	-0.050061	-0.516416	-0.042197	-5.187017	-62.385861	-2.516752
34240		0.853811	-0.050041	-0.516454	-0.042157	-5.187952	-62.390618	-2.510709
34241		0.853791	-0.049969	-0.516501	-0.042080	-5.182942	-62.396267	-2.503218
34242		0.853766	-0.049908	-0.516553	-0.042022	-5.177692	-62.402662	-2.498307
34243		0.853727	-0.049972	-0.516605	-0.042098	-5.181754	-62.410306	-2.505813
34244		0.853707	-0.049912	-0.516649	-0.042034	-5.177542	-62.415682	-2.499675
34245		0.853699	-0.050044	-0.516638	-0.042183	-5.186298	-62.415466	-2.514319
34246		0.853686	-0.049988	-0.516668	-0.042139	-5.180398	-62.418994	-2.511865
34247		0.853666	-0.049879	-0.516719	-0.042047	-5.169091	-62.424994	-2.506259
34248		0.853651	-0.049834	-0.516751	-0.042011	-5.164521	-62.428862	-2.504015
34249		0.853629	-0.049884	-0.516774	-0.042107	-5.162748	-62.432708	-2.517900
34250		0.853620	-0.049830	-0.516796	-0.042087	-5.154130	-62.435404	-2.520354
34251		0.853597	-0.049646	-0.516866	-0.041929	-5.135760	-62.443216	-2.509907
34252		0.853557	-0.049584	-0.516937	-0.041929	-5.123032	-62.452589	-2.517330
34253		0.853512	-0.049481	-0.517026	-0.041860	-5.110395	-62.463830	-2.515446
34254		0.853453	-0.049440	-0.517128	-0.041853	-5.103030	-62.477329	-2.518473
34255		0.853380	-0.049519	-0.517234	-0.041939	-5.109300	-62.492288	-2.525822
34256		0.853299	-0.049508	-0.517369	-0.041932	-5.108657	-62.510254	-2.524641
34257		0.853217	-0.049442	-0.517517	-0.041854	-5.105333	-62.529434	-2.515589
34258		0.853148	-0.049418	-0.517638	-0.041813	-5.106128	-62.545268	-2.509176
34259		0.853080	-0.049354	-0.517764	-0.041702	-5.107597	-62.561327	-2.492817
34260		0.853011	-0.049337	-0.517882	-0.041677	-5.107693	-62.576915	-2.488963
34261		0.852970	-0.049382	-0.517944	-0.041688	-5.116159	-62.585483	-2.485020
34262		0.852938	-0.049388	-0.518000	-0.041642	-5.123758	-62.592712	-2.473938
34263		0.852904	-0.049457	-0.518044	-0.041704	-5.130541	-62.599224	-2.478029
34264		0.852894	-0.049456	-0.518064	-0.041668	-5.135099	-62.601654	-2.470364
34265		0.852880	-0.049586	-0.518065	-0.041781	-5.148232	-62.602756	-2.477417
34266		0.852897	-0.049563	-0.518042	-0.041756	-5.146365	-62.599464	-2.475337
34267		0.852910	-0.049486	-0.518035	-0.041662	-5.142098	-62.597740	-2.465417
34268		0.852908	-0.049472	-0.518040	-0.041651	-5.140531	-62.598418	-2.464845
34269		0.852902	-0.049458	-0.518051	-0.041662	-5.136370	-62.599805	-2.468779
34270		0.852880	-0.049434	-0.518093	-0.041617	-5.137259	-62.605176	-2.461990
34271		0.852877	-0.049542	-0.518081	-0.041701	-5.149319	-62.604340	-2.466027
34272		0.852885	-0.049494	-0.518078	-0.041628	-5.148432	-62.603411	-2.456766
34273		0.852846	-0.049287	-0.518179	-0.041414	-5.132623	-62.615045	-2.437267
34274		0.852814	-0.049300	-0.518232	-0.041384	-5.139556	-62.622026	-2.428724
34275		0.852767	-0.049351	-0.518304	-0.041390	-5.149903	-62.631879	-2.423033
34276		0.852709	-0.049327	-0.518405	-0.041349	-5.150820	-62.645083	-2.416447
34277		0.852663	-0.049221	-0.518501	-0.041226	-5.144479	-62.656815	-2.403456
34278		0.852636	-0.049188	-0.518553	-0.041170	-5.145087	-62.663436	-2.395289
34279		0.852572	-0.049157	-0.518660	-0.041187	-5.136828	-62.677725	-2.402159
34280		0.852517	-0.049040	-0.518767	-0.041127	-5.120251	-62.691415	-2.403753
34281		0.852453	-0.048977	-0.518879	-0.041120	-5.108239	-62.706166	-2.409724
34282		0.852406	-0.048882	-0.518970	-0.041046	-5.098129	-62.717733	-2.405478
34283		0.852360	-0.048739	-0.519070	-0.040900	-5.087036	-62.729866	-2.392243
34284		0.852331	-0.048676	-0.519129	-0.040846	-5.080909	-62.737238	-2.388469
34285		0.852326	-0.048534	-0.519161	-0.040706	-5.068843	-62.740333	-2.376903
34286		0.852307	-0.048459	-0.519199	-0.040701	-5.053750	-62.745134	-2.385232
34287		0.852293	-0.048331	-0.519241	-0.040603	-5.039176	-62.749944	-2.380867
34288		0.852269	-0.048209	-0.519295	-0.040563	-5.018617	-62.756601	-2.387767
34289		0.852238	-0.048063	-0.519363	-0.040528	-4.992255	-62.765026	-2.398857
34290		0.852215	-0.047936	-0.519412	-0.040525	-4.965811	-62.771280	-2.414342
34291		0.852192	-0.047718	-0.519478	-0.040431	-4.931610	-62.779017	-2.422413
34292		0.852176	-0.047604	-0.519513	-0.040445	-4.905596	-62.783382	-2.439950
34293		0.852170	-0.047525	-0.519529	-0.040467	-4.885984	-62.785412	-2.454775
34294		0.852158	-0.047389	-0.519559	-0.040494	-4.853492	-62.789263	-2.478099
34295		0.852142	-0.047341	-0.519583	-0.040576	-4.832597	-62.792788	-2.501763
34296		0.852122	-0.047240	-0.519622	-0.040607	-4.807020	-62.797863	-2.521434
34297		0.852130	-0.047178	-0.519611	-0.040667	-4.785949	-62.796578	-2.542448
34298		0.852144	-0.047002	-0.519606	-0.040629	-4.753042	-62.795213	-2.557403
34299		0.852130	-0.046837	-0.519643	-0.040639	-4.716755	-62.799714	-2.580701
34300		0.852130	-0.046766	-0.519647	-0.040680	-4.696072	-62.800203	-2.598906
34301		0.852133	-0.046704	-0.519644	-0.040714	-4.678489	-62.799796	-2.614175
34302		0.852131	-0.046584	-0.519661	-0.040682	-4.657066	-62.801559	-2.622833
34303		0.852119	-0.046495	-0.519690	-0.040678	-4.638437	-62.805119	-2.633575
34304		0.852169	-0.046388	-0.519617	-0.040668	-4.616694	-62.794946	-2.645754
34305		0.852184	-0.046306	-0.519597	-0.040697	-4.595122	-62.792224	-2.662923
34306		0.852202	-0.046196	-0.519578	-0.040699	-4.571269	-62.789281	-2.677771
34307		0.852235	-0.046055	-0.519539	-0.040673	-4.544495	-62.783485	-2.690731
34308		0.852271	-0.045936	-0.519491	-0.040661	-4.520415	-62.776566	-2.703994
34309		0.852314	-0.045842	-0.519427	-0.040682	-4.497376	-62.767823	-2.721076
34310		0.852331	-0.045715	-0.519408	-0.040718	-4.465331	-62.765103	-2.745480
34311		0.852338	-0.045630	-0.519399	-0.040767	-4.440733	-62.763897	-2.767115
34312		0.852367	-0.045526	-0.519358	-0.040812	-4.412425	-62.758243	-2.790575
34313		0.852400	-0.045567	-0.519285	-0.041006	-4.395738	-62.749556	-2.827047
34314		0.852443	-0.045475	-0.519219	-0.041053	-4.369877	-62.740621	-2.849328
34315		0.852467	-0.045362	-0.519188	-0.041064	-4.344252	-62.736193	-2.866518
34316		0.852469	-0.045298	-0.519189	-0.041093	-4.326750	-62.736205	-2.881040
34317		0.852488	-0.045169	-0.519168	-0.041096	-4.298759	-62.732971	-2.898498
34318		0.852519	-0.045119	-0.519117	-0.041149	-4.280963	-62.726259	-2.916669
34319		0.852556	-0.045082	-0.519054	-0.041220	-4.263686	-62.718041	-2.936924
34320		0.852607	-0.045038	-0.518971	-0.041244	-4.250993	-62.706913	-2.948170
34321		0.852687	-0.045006	-0.518838	-0.041304	-4.236221	-62.689222	-2.965530
34322		0.852779	-0.044973	-0.518689	-0.041318	-4.226988	-62.669216	-2.973396
34323		0.852859	-0.045013	-0.518549	-0.041375	-4.227884	-62.650846	-2.980958
34324		0.852912	-0.044996	-0.518465	-0.041363	-4.225631	-62.639456	-2.980911
34325		0.852968	-0.044949	-0.518379	-0.041333	-4.219517	-62.627670	-2.980833
34326		0.853030	-0.044925	-0.518279	-0.041332	-4.214261	-62.614075	-2.984236
34327		0.853065	-0.044886	-0.518223	-0.041354	-4.202892	-62.606551	-2.994192
34328		0.853116	-0.044847	-0.518144	-0.041341	-4.196116	-62.595841	-2.996832
34329		0.853227	-0.044711	-0.517980	-0.041245	-4.179426	-62.572879	-2.994529
34330		0.853353	-0.044667	-0.517780	-0.041205	-4.174840	-62.545718	-2.992468
34331		0.853443	-0.044662	-0.517632	-0.041191	-4.175158	-62.525820	-2.990836
34332		0.853506	-0.044625	-0.517536	-0.041130	-4.175162	-62.512541	-2.982894
34333		0.853574	-0.044670	-0.517421	-0.041131	-4.184131	-62.497278	-2.977999
34334		0.853641	-0.044653	-0.517317	-0.041060	-4.189544	-62.482927	-2.965469
34335		0.853696	-0.044731	-0.517220	-0.041069	-4.204785	-62.470224	-2.957704
34336		0.853760	-0.044687	-0.517124	-0.040982	-4.206379	-62.456798	-2.945303
34337		0.853814	-0.044707	-0.517037	-0.040932	-4.216816	-62.445012	-2.932595
34338		0.853884	-0.044703	-0.516928	-0.040864	-4.224555	-62.429996	-2.919085
34339		0.853942	-0.044697	-0.516838	-0.040793	-4.232292	-62.417642	-2.905060
34340		0.854015	-0.044724	-0.516723	-0.040693	-4.250469	-62.401731	-2.881083
34341		0.854056	-0.044756	-0.516651	-0.040704	-4.255757	-62.392291	-2.879488
34342		0.854134	-0.044768	-0.516528	-0.040605	-4.270601	-62.375421	-2.857640
34343		0.854168	-0.044883	-0.516459	-0.040654	-4.288607	-62.366822	-2.853453
34344		0.854202	-0.044880	-0.516408	-0.040589	-4.296128	-62.359642	-2.840396
34345		0.854237	-0.044910	-0.516352	-0.040543	-4.308168	-62.351942	-2.827163
34346		0.854264	-0.044907	-0.516310	-0.040494	-4.313777	-62.346156	-2.817244
34347		0.854291	-0.044984	-0.516258	-0.040505	-4.328336	-62.339472	-2.810081
34348		0.854319	-0.045037	-0.516210	-0.040474	-4.343381	-62.333041	-2.796972
34349		0.854344	-0.045209	-0.516142	-0.040632	-4.359361	-62.325245	-2.808782
34350		0.854396	-0.045268	-0.516052	-0.040615	-4.373803	-62.313331	-2.797997
34351		0.854432	-0.045319	-0.515987	-0.040620	-4.383844	-62.304870	-2.792770
34352		0.854469	-0.045342	-0.515925	-0.040590	-4.392261	-62.296537	-2.783879
34353		0.854505	-0.045435	-0.515854	-0.040636	-4.405932	-62.287517	-2.782036
34354		0.854559	-0.045413	-0.515772	-0.040579	-4.408168	-62.276159	-2.773326
34355		0.854608	-0.045373	-0.515701	-0.040485	-4.411607	-62.266070	-2.758851
34356		0.854648	-0.045368	-0.515638	-0.040452	-4.414380	-62.257445	-2.753063
34357		0.854669	-0.045473	-0.515587	-0.040538	-4.425594	-62.251456	-2.757863
34358		0.854697	-0.045468	-0.515544	-0.040507	-4.428320	-62.245448	-2.752199
34359		0.854706	-0.045457	-0.515530	-0.040487	-4.428413	-62.243497	-2.749571
34360		0.854725	-0.045447	-0.515502	-0.040465	-4.429084	-62.239518	-2.746356
34361		0.854714	-0.045481	-0.515516	-0.040485	-4.433728	-62.241713	-2.746155
34362		0.854723	-0.045491	-0.515499	-0.040484	-4.435974	-62.239458	-2.744633
34363		0.854707	-0.045609	-0.515507	-0.040607	-4.445243	-62.241477	-2.755552
34364		0.854693	-0.045667	-0.515522	-0.040629	-4.454650	-62.243852	-2.752753
34365		0.854674	-0.045781	-0.515536	-0.040727	-4.466438	-62.246531	-2.758701
34366		0.854642	-0.045777	-0.515590	-0.040730	-4.465207	-62.253815	-2.759740
34367		0.854620	-0.045952	-0.515601	-0.040842	-4.487843	-62.256459	-2.761048
34368		0.854614	-0.046030	-0.515601	-0.040878	-4.499912	-62.256920	-2.758591
34369		0.854531	-0.045982	-0.515750	-0.040803	-4.499781	-62.276248	-2.748076
34370		0.854430	-0.045997	-0.515920	-0.040751	-4.510146	-62.298812	-2.734213
34371		0.854344	-0.046100	-0.516058	-0.040698	-4.538974	-62.317232	-2.709327
34372		0.854254	-0.046150	-0.516207	-0.040634	-4.558122	-62.337022	-2.688638
34373		0.854153	-0.046223	-0.516367	-0.040632	-4.574547	-62.358739	-2.677831
34374		0.854077	-0.046298	-0.516487	-0.040630	-4.590929	-62.374954	-2.667260
34375		0.853975	-0.046322	-0.516655	-0.040609	-4.599422	-62.397452	-2.658770
34376		0.853860	-0.046337	-0.516845	-0.040587	-4.606163	-62.422794	-2.650991
34377		0.853749	-0.046418	-0.517019	-0.040607	-4.621297	-62.446429	-2.644008
34378		0.853648	-0.046448	-0.517186	-0.040568	-4.633352	-62.468680	-2.630836
34379		0.853535	-0.046409	-0.517387	-0.040430	-4.643489	-62.494718	-2.605470
34380		0.853448	-0.046513	-0.517526	-0.040374	-4.673238	-62.513416	-2.579411
34381		0.853375	-0.046680	-0.517628	-0.040412	-4.704404	-62.527731	-2.565168
34382		0.853300	-0.046814	-0.517742	-0.040381	-4.737169	-62.543250	-2.540747
34383		0.853231	-0.046877	-0.517855	-0.040307	-4.760642	-62.558262	-2.516194
34384		0.853183	-0.046988	-0.517927	-0.040288	-4.787065	-62.568030	-2.497275
34385		0.853118	-0.047030	-0.518034	-0.040245	-4.802136	-62.582261	-2.481874
34386		0.853048	-0.047073	-0.518147	-0.040220	-4.814873	-62.597370	-2.470365
34387		0.852983	-0.047052	-0.518262	-0.040140	-4.821393	-62.612299	-2.455275
34388		0.852926	-0.047090	-0.518351	-0.040151	-4.828302	-62.624409	-2.452214
34389		0.852868	-0.047274	-0.518419	-0.040297	-4.849100	-62.634840	-2.458835
34390		0.852825	-0.047300	-0.518486	-0.040299	-4.854719	-62.643983	-2.455464
34391		0.852797	-0.047320	-0.518533	-0.040270	-4.862928	-62.650127	-2.446440
34392		0.852781	-0.047391	-0.518552	-0.040281	-4.876730	-62.653023	-2.439445
34393		0.852754	-0.047520	-0.518578	-0.040376	-4.891983	-62.657350	-2.442766
34394		0.852747	-0.047537	-0.518587	-0.040378	-4.895408	-62.658693	-2.440863
34395		0.852725	-0.047360	-0.518654	-0.040191	-4.882405	-62.665981	-2.423386
34396		0.852712	-0.047513	-0.518656	-0.040255	-4.906576	-62.667083	-2.417301
34397		0.852691	-0.047633	-0.518673	-0.040350	-4.919935	-62.670247	-2.421836
34398		0.852702	-0.047690	-0.518649	-0.040341	-4.933295	-62.667172	-2.412577
34399		0.852674	-0.047887	-0.518668	-0.040467	-4.959089	-62.670982	-2.413709
34400		0.852684	-0.047979	-0.518643	-0.040476	-4.977426	-62.667939	-2.403880
34401		0.852649	-0.048070	-0.518689	-0.040516	-4.991914	-62.674576	-2.400190
34402		0.852632	-0.048117	-0.518712	-0.040516	-5.002097	-62.677780	-2.393956
34403		0.852649	-0.048177	-0.518677	-0.040526	-5.013262	-62.673440	-2.388700
34404		0.852635	-0.048252	-0.518692	-0.040543	-5.027242	-62.675703	-2.382363
34405		0.852634	-0.048323	-0.518685	-0.040575	-5.038113	-62.675136	-2.380065
34406		0.852637	-0.048371	-0.518672	-0.040612	-5.043571	-62.673715	-2.381806
34407		0.852647	-0.048335	-0.518667	-0.040508	-5.049349	-62.672415	-2.364329
34408		0.852664	-0.048343	-0.518638	-0.040510	-5.050546	-62.668578	-2.363998
34409		0.852677	-0.048342	-0.518621	-0.040473	-5.055007	-62.665972	-2.356423
34410		0.852713	-0.048364	-0.518560	-0.040473	-5.059538	-62.657840	-2.353821
34411		0.852715	-0.048508	-0.518530	-0.040616	-5.071482	-62.655180	-2.365903
34412		0.852725	-0.048535	-0.518513	-0.040609	-5.078113	-62.652851	-2.361034
34413		0.852749	-0.048525	-0.518477	-0.040577	-5.079846	-62.647858	-2.355865
34414		0.852761	-0.048548	-0.518455	-0.040579	-5.084419	-62.644949	-2.353374
34415		0.852761	-0.048595	-0.518449	-0.040584	-5.093748	-62.644317	-2.348471
34416		0.852756	-0.048619	-0.518456	-0.040573	-5.100253	-62.645223	-2.342968
34417		0.852753	-0.048577	-0.518473	-0.040465	-5.105493	-62.646831	-2.325231
34418		0.852763	-0.048596	-0.518456	-0.040461	-5.109915	-62.644546	-2.322054
34419		0.852756	-0.048613	-0.518467	-0.040432	-5.117424	-62.645908	-2.313586
34420		0.852774	-0.048668	-0.518432	-0.040456	-5.125917	-62.641436	-2.311691
34421		0.852764	-0.048762	-0.518436	-0.040496	-5.140788	-62.642452	-2.308013
34422		0.852784	-0.048847	-0.518394	-0.040517	-5.156006	-62.637222	-2.301748
34423		0.852814	-0.048810	-0.518353	-0.040449	-5.156604	-62.631277	-2.292491
34424		0.852843	-0.048841	-0.518302	-0.040461	-5.161413	-62.624510	-2.291339
34425		0.852892	-0.048973	-0.518199	-0.040571	-5.174644	-62.611818	-2.298592
34426		0.852930	-0.048967	-0.518137	-0.040568	-5.173446	-62.603422	-2.299174
34427		0.852968	-0.048872	-0.518094	-0.040451	-5.167886	-62.596620	-2.287075
34428		0.852997	-0.048920	-0.518041	-0.040457	-5.177075	-62.589759	-2.282556
34429		0.852996	-0.049061	-0.518017	-0.040603	-5.188192	-62.587852	-2.295371
34430		0.853023	-0.049062	-0.517972	-0.040616	-5.186290	-62.581843	-2.298585
34431		0.853030	-0.049067	-0.517960	-0.040603	-5.189171	-62.580214	-2.295120
34432		0.853053	-0.049131	-0.517915	-0.040638	-5.197936	-62.574493	-2.294616
34433		0.853066	-0.049132	-0.517895	-0.040605	-5.202330	-62.571625	-2.287643
34434		0.853070	-0.049198	-0.517881	-0.040637	-5.212156	-62.570114	-2.286023
34435		0.853068	-0.049199	-0.517884	-0.040623	-5.214113	-62.570472	-2.282957
34436		0.853069	-0.049269	-0.517875	-0.040647	-5.225988	-62.569537	-2.278965
34437		0.853062	-0.049353	-0.517872	-0.040716	-5.234869	-62.569888	-2.282802
34438		0.853058	-0.049373	-0.517877	-0.040723	-5.238436	-62.570611	-2.281576
34439		0.853053	-0.049341	-0.517893	-0.040654	-5.240512	-62.572217	-2.271039
34440		0.853055	-0.049362	-0.517888	-0.040646	-5.245958	-62.571525	-2.266709
34441		0.853039	-0.049445	-0.517902	-0.040713	-5.255136	-62.574036	-2.270043
34442		0.853035	-0.049466	-0.517906	-0.040720	-5.258704	-62.574760	-2.268816
34443		0.853021	-0.049596	-0.517907	-0.040839	-5.270859	-62.575878	-2.277367
34444		0.853029	-0.049616	-0.517892	-0.040845	-5.274404	-62.573988	-2.276098
34445		0.853021	-0.049813	-0.517869	-0.041052	-5.289435	-62.572753	-2.294834
34446		0.853026	-0.049803	-0.517861	-0.041061	-5.286281	-62.571627	-2.297923
34447		0.853036	-0.049752	-0.517855	-0.040997	-5.283442	-62.570352	-2.291081
34448		0.853053	-0.049759	-0.517826	-0.040999	-5.284633	-62.566517	-2.290765
34449		0.853057	-0.049810	-0.517810	-0.041051	-5.288699	-62.564770	-2.295382
34450		0.853065	-0.049816	-0.517798	-0.041044	-5.290796	-62.563152	-2.293208
34451		0.853068	-0.049883	-0.517782	-0.041097	-5.298127	-62.561543	-2.295938
34452		0.853063	-0.049881	-0.517790	-0.041094	-5.298070	-62.562587	-2.295484
34453		0.853049	-0.049999	-0.517796	-0.041165	-5.314115	-62.564150	-2.295262
34454		0.853040	-0.050012	-0.517811	-0.041161	-5.317436	-62.566121	-2.292645
34455		0.853016	-0.050090	-0.517837	-0.041211	-5.327804	-62.570247	-2.292984
34456		0.853007	-0.050097	-0.517855	-0.041192	-5.331864	-62.572442	-2.287777
34457		0.852983	-0.050241	-0.517869	-0.041324	-5.345507	-62.575569	-2.297232
34458		0.852973	-0.050230	-0.517887	-0.041310	-5.345197	-62.577858	-2.295386
34459		0.852959	-0.050310	-0.517897	-0.041386	-5.352376	-62.579853	-2.301166
34460		0.852941	-0.050277	-0.517930	-0.041386	-5.345677	-62.584279	-2.305092
34461		0.852931	-0.050236	-0.517954	-0.041345	-5.342376	-62.587039	-2.301454
34462		0.852917	-0.050223	-0.517979	-0.041335	-5.341064	-62.590348	-2.300809
34463		0.852912	-0.050223	-0.517988	-0.041311	-5.344246	-62.591380	-2.295615
34464		0.852896	-0.050268	-0.518009	-0.041330	-5.351550	-62.594401	-2.293624
34465		0.852858	-0.050400	-0.518049	-0.041453	-5.363881	-62.600999	-2.302520
34466		0.852859	-0.050533	-0.518030	-0.041512	-5.384570	-62.599148	-2.297858
34467		0.852857	-0.050571	-0.518032	-0.041464	-5.398834	-62.599244	-2.282802
34468		0.852795	-0.050523	-0.518144	-0.041416	-5.395522	-62.613784	-2.277858
34469		0.852719	-0.050506	-0.518276	-0.041337	-5.403006	-62.630941	-2.262082
34470		0.852629	-0.050581	-0.518415	-0.041365	-5.416316	-62.649894	-2.257056
34471		0.852526	-0.050647	-0.518578	-0.041376	-5.430023	-62.671969	-2.249403
34472		0.852424	-0.050690	-0.518739	-0.041397	-5.437570	-62.693899	-2.246837
34473		0.852349	-0.050653	-0.518873	-0.041298	-5.443152	-62.711095	-2.229580
34474		0.852268	-0.050676	-0.519004	-0.041298	-5.449024	-62.728688	-2.225354
34475		0.852162	-0.050619	-0.519188	-0.041254	-5.443770	-62.752934	-2.221767
34476		0.852069	-0.050586	-0.519345	-0.041236	-5.440185	-62.773828	-2.220826
34477		0.851998	-0.050663	-0.519446	-0.041330	-5.445141	-62.788127	-2.229906
34478		0.851906	-0.050637	-0.519600	-0.041328	-5.440828	-62.808793	-2.231556
34479		0.851823	-0.050634	-0.519735	-0.041347	-5.438590	-62.826930	-2.234774
34480		0.851778	-0.050622	-0.519809	-0.041354	-5.435513	-62.836879	-2.237264
34481		0.851737	-0.050682	-0.519863	-0.041448	-5.436527	-62.844846	-2.248982
34482		0.851730	-0.050690	-0.519873	-0.041452	-5.437834	-62.846245	-2.248720
34483		0.851698	-0.050662	-0.519931	-0.041421	-5.436277	-62.853871	-2.245208
34484		0.851648	-0.050633	-0.520016	-0.041420	-5.430739	-62.865110	-2.248001
34485		0.851628	-0.050685	-0.520041	-0.041460	-5.436852	-62.868830	-2.249620
34486		0.851601	-0.050649	-0.520089	-0.041441	-5.431959	-62.875070	-2.249773
34487		0.851573	-0.050576	-0.520149	-0.041361	-5.426924	-62.882402	-2.241899
34488		0.851544	-0.050576	-0.520197	-0.041342	-5.429991	-62.888841	-2.237144
34489		0.851517	-0.050609	-0.520237	-0.041361	-5.434696	-62.894421	-2.236681
34490		0.851508	-0.050628	-0.520250	-0.041373	-5.437335	-62.896170	-2.236620
34491		0.851462	-0.050578	-0.520334	-0.041313	-5.434937	-62.907031	-2.229592
34492		0.851443	-0.050627	-0.520360	-0.041324	-5.444402	-62.910622	-2.225124
34493		0.851439	-0.050497	-0.520386	-0.041231	-5.428602	-62.913260	-2.222249
34494		0.851436	-0.050413	-0.520402	-0.041188	-5.416246	-62.914923	-2.223982
34495		0.851465	-0.050472	-0.520349	-0.041203	-5.426688	-62.908014	-2.219795
34496		0.851431	-0.050470	-0.520405	-0.041188	-5.428749	-62.915475	-2.216241
34497		0.851405	-0.050521	-0.520440	-0.041225	-5.435050	-62.920484	-2.217148
34498		0.851367	-0.050556	-0.520497	-0.041238	-5.441232	-62.928375	-2.214900
34499		0.851363	-0.050572	-0.520502	-0.041246	-5.443594	-62.929128	-2.214559
34500		0.851339	-0.050566	-0.520544	-0.041225	-5.445477	-62.934603	-2.210285
34501		0.851330	-0.050569	-0.520562	-0.041170	-5.453306	-62.936639	-2.198102
34502		0.851303	-0.050568	-0.520608	-0.041140	-5.457279	-62.942683	-2.191415
34503		0.851281	-0.050533	-0.520654	-0.041073	-5.458847	-62.948269	-2.181223
34504		0.851295	-0.050554	-0.520629	-0.041064	-5.464329	-62.944982	-2.176823
34505		0.851250	-0.050647	-0.520687	-0.041155	-5.473055	-62.953567	-2.183355
34506		0.851238	-0.050671	-0.520704	-0.041159	-5.477792	-62.955894	-2.180875
34507		0.851211	-0.050748	-0.520736	-0.041215	-5.487271	-62.960712	-2.182471
34508		0.851173	-0.050760	-0.520796	-0.041218	-5.489813	-62.968922	-2.181000
34509		0.851161	-0.050720	-0.520824	-0.041182	-5.486073	-62.972256	-2.178365
34510		0.851143	-0.050753	-0.520849	-0.041169	-5.495005	-62.975720	-2.171051
34511		0.851146	-0.050736	-0.520847	-0.041159	-5.492622	-62.975332	-2.171141
34512		0.851129	-0.050727	-0.520877	-0.041141	-5.493448	-62.979218	-2.168052
34513		0.851127	-0.050715	-0.520886	-0.041095	-5.496854	-62.980069	-2.159828
34514		0.851120	-0.050756	-0.520892	-0.041108	-5.504063	-62.981108	-2.157039
34515		0.851088	-0.050705	-0.520959	-0.040995	-5.508421	-62.989199	-2.138840
34516		0.851073	-0.050780	-0.520974	-0.041011	-5.522599	-62.991454	-2.132325
34517		0.851043	-0.050786	-0.521026	-0.040971	-5.529473	-62.998176	-2.122468
34518		0.851027	-0.050849	-0.521046	-0.040985	-5.541312	-63.001100	-2.116954
34519		0.851004	-0.050871	-0.521083	-0.040939	-5.552335	-63.005912	-2.103905
34520		0.850976	-0.050910	-0.521126	-0.040944	-5.560580	-63.011761	-2.099189
34521		0.850946	-0.050968	-0.521166	-0.040970	-5.569817	-63.017458	-2.096826
34522		0.850929	-0.050985	-0.521195	-0.040944	-5.577307	-63.021188	-2.088583
34523		0.850928	-0.050902	-0.521213	-0.040829	-5.574572	-63.022744	-2.074735
34524		0.850901	-0.050877	-0.521263	-0.040788	-5.574914	-63.029103	-2.068806
34525		0.850888	-0.050820	-0.521298	-0.040697	-5.574950	-63.033019	-2.056342
34526		0.850890	-0.050791	-0.521304	-0.040605	-5.580793	-63.033128	-2.040345
34527		0.850858	-0.050920	-0.521336	-0.040700	-5.596328	-63.038436	-2.043531
34528		0.850844	-0.050898	-0.521368	-0.040611	-5.603484	-63.042113	-2.027007
34529		0.850809	-0.050788	-0.521451	-0.040421	-5.605440	-63.051657	-1.999790
34530		0.850790	-0.050772	-0.521490	-0.040334	-5.613820	-63.056299	-1.982744
34531		0.850764	-0.050670	-0.521558	-0.040130	-5.619229	-63.063930	-1.951700
34532		0.850723	-0.050709	-0.521626	-0.040053	-5.638259	-63.072679	-1.929360
34533		0.850671	-0.050659	-0.521722	-0.039968	-5.639557	-63.084905	-1.916602
34534		0.850626	-0.050696	-0.521798	-0.039896	-5.657605	-63.094668	-1.895440
34535		0.850584	-0.050610	-0.521888	-0.039717	-5.663601	-63.105417	-1.867220
34536		0.850533	-0.050638	-0.521974	-0.039662	-5.677543	-63.116655	-1.850875
34537		0.850480	-0.050606	-0.522072	-0.039533	-5.688474	-63.128851	-1.826312
34538		0.850431	-0.050621	-0.522154	-0.039490	-5.698096	-63.139575	-1.814096
34539		0.850376	-0.050670	-0.522241	-0.039459	-5.713506	-63.151255	-1.800059
34540		0.850323	-0.050656	-0.522332	-0.039428	-5.715456	-63.163162	-1.794195
34541		0.850252	-0.050694	-0.522445	-0.039410	-5.726991	-63.178323	-1.783970
34542		0.850205	-0.050724	-0.522523	-0.039350	-5.742027	-63.188523	-1.766338
34543		0.850149	-0.050723	-0.522619	-0.039282	-5.751864	-63.200963	-1.750517
34544		0.850100	-0.050738	-0.522701	-0.039238	-5.761564	-63.211674	-1.738232
34545		0.850052	-0.050621	-0.522808	-0.039006	-5.768030	-63.224215	-1.702535
34546		0.849998	-0.050628	-0.522899	-0.038952	-5.777526	-63.236155	-1.688795
34547		0.849943	-0.050589	-0.523001	-0.038830	-5.786169	-63.248970	-1.666576
34548		0.849889	-0.050627	-0.523089	-0.038783	-5.801608	-63.260525	-1.650262
34549		0.849833	-0.050596	-0.523190	-0.038668	-5.811164	-63.273304	-1.628255
34550		0.849755	-0.050595	-0.523321	-0.038617	-5.818710	-63.290494	-1.616108
34551		0.849681	-0.050406	-0.523479	-0.038351	-5.814828	-63.309669	-1.581779
34552		0.849591	-0.050381	-0.523632	-0.038291	-5.818828	-63.329780	-1.570386
34553		0.849490	-0.050225	-0.523825	-0.038100	-5.812099	-63.354101	-1.547763
34554		0.849393	-0.050183	-0.523988	-0.038061	-5.809721	-63.375745	-1.542956
34555		0.849298	-0.050252	-0.524131	-0.038139	-5.815822	-63.395619	-1.548907
34556		0.849237	-0.050224	-0.524234	-0.038109	-5.814537	-63.409193	-1.545139
34557		0.849176	-0.050085	-0.524359	-0.037927	-5.809982	-63.424528	-1.522668
34558		0.849126	-0.050067	-0.524445	-0.037904	-5.809912	-63.435851	-1.519135
34559		0.849075	-0.050175	-0.524513	-0.037952	-5.827746	-63.445563	-1.514171
34560		0.849057	-0.050148	-0.524550	-0.037886	-5.831065	-63.450065	-1.503006
34561		0.849033	-0.050045	-0.524611	-0.037715	-5.832202	-63.456932	-1.478930
34562		0.849013	-0.050082	-0.524641	-0.037693	-5.843442	-63.460925	-1.468938
34563		0.848998	-0.049974	-0.524692	-0.037471	-5.850102	-63.465997	-1.434608
34564		0.848977	-0.049998	-0.524727	-0.037418	-5.862959	-63.470402	-1.419295
34565		0.848946	-0.050104	-0.524768	-0.037393	-5.889810	-63.475937	-1.399131
34566		0.848952	-0.050235	-0.524746	-0.037384	-5.919527	-63.473171	-1.379577
34567		0.848917	-0.050122	-0.524826	-0.037220	-5.917682	-63.482581	-1.358160
34568		0.848860	-0.050100	-0.524925	-0.037148	-5.923593	-63.495421	-1.344300
34569		0.848816	-0.050260	-0.524978	-0.037201	-5.952117	-63.503070	-1.333409
34570		0.848784	-0.050292	-0.525030	-0.037165	-5.964345	-63.509854	-1.320649
34571		0.848728	-0.050238	-0.525132	-0.037064	-5.967197	-63.522906	-1.304733
34572		0.848699	-0.050253	-0.525178	-0.037057	-5.971944	-63.529051	-1.300601
34573		0.848682	-0.050293	-0.525201	-0.037064	-5.979913	-63.532179	-1.296473
34574		0.848638	-0.050242	-0.525280	-0.037018	-5.975889	-63.542451	-1.292294
34575		0.848586	-0.050285	-0.525353	-0.037120	-5.972259	-63.553006	-1.307815
34576		0.848550	-0.050227	-0.525416	-0.037115	-5.960932	-63.561412	-1.313746
34577		0.848517	-0.050217	-0.525472	-0.037105	-5.960809	-63.568866	-1.312160
34578		0.848504	-0.050179	-0.525498	-0.037074	-5.956777	-63.572105	-1.310314
34579		0.848496	-0.050132	-0.525520	-0.037031	-5.952542	-63.574652	-1.307047
34580		0.848488	-0.050110	-0.525536	-0.037009	-5.950956	-63.576605	-1.304908
34581		0.848498	-0.049892	-0.525559	-0.036749	-5.938508	-63.577564	-1.277512
34582		0.848494	-0.049842	-0.525573	-0.036695	-5.935041	-63.579028	-1.272340
34583		0.848484	-0.049779	-0.525596	-0.036675	-5.924191	-63.581978	-1.276214
34584		0.848491	-0.049705	-0.525595	-0.036639	-5.912880	-63.581437	-1.278309
34585		0.848499	-0.049558	-0.525603	-0.036525	-5.896165	-63.581511	-1.273264
34586		0.848535	-0.049492	-0.525554	-0.036497	-5.884743	-63.574554	-1.276956
34587		0.848571	-0.049456	-0.525499	-0.036493	-5.876988	-63.567077	-1.281466
34588		0.848632	-0.049401	-0.525406	-0.036495	-5.863644	-63.554518	-1.290615
34589		0.848691	-0.049249	-0.525332	-0.036378	-5.845396	-63.543567	-1.286537
34590		0.848756	-0.049196	-0.525232	-0.036376	-5.833084	-63.529983	-1.294452
34591		0.848829	-0.049246	-0.525106	-0.036444	-5.833598	-63.513470	-1.304026
34592		0.848898	-0.049086	-0.525014	-0.036381	-5.806131	-63.500410	-1.313114
34593		0.848965	-0.048964	-0.524919	-0.036348	-5.782748	-63.487292	-1.323727
34594		0.849064	-0.048935	-0.524761	-0.036364	-5.772866	-63.465992	-1.332867
34595		0.849153	-0.048833	-0.524628	-0.036339	-5.752418	-63.447822	-1.342942
34596		0.849234	-0.048758	-0.524504	-0.036320	-5.737404	-63.430918	-1.350435
34597		0.849296	-0.048631	-0.524421	-0.036239	-5.719745	-63.418952	-1.350952
34598		0.849399	-0.048543	-0.524264	-0.036216	-5.702165	-63.397515	-1.359524
34599		0.849482	-0.048336	-0.524162	-0.036032	-5.680698	-63.382209	-1.348601
34600		0.849563	-0.048279	-0.524037	-0.036008	-5.670242	-63.365179	-1.352543
34601		0.849624	-0.048211	-0.523948	-0.035968	-5.659880	-63.352815	-1.354100
34602		0.849683	-0.048144	-0.523859	-0.035939	-5.648363	-63.340629	-1.357730
34603		0.849736	-0.047938	-0.523803	-0.035789	-5.623068	-63.331719	-1.353488
34604		0.849789	-0.047856	-0.523727	-0.035761	-5.608219	-63.321219	-1.359310
34605		0.849838	-0.047733	-0.523664	-0.035690	-5.590366	-63.311992	-1.361125
34606		0.849898	-0.047673	-0.523573	-0.035676	-5.578081	-63.299591	-1.367360
34607		0.849975	-0.047558	-0.523461	-0.035630	-5.558447	-63.284114	-1.373813
34608		0.850057	-0.047496	-0.523332	-0.035643	-5.542021	-63.266758	-1.386397
34609		0.850142	-0.047406	-0.523205	-0.035612	-5.525311	-63.249234	-1.393269
34610		0.850234	-0.047340	-0.523061	-0.035618	-5.508719	-63.229880	-1.405118
34611		0.850336	-0.047294	-0.522897	-0.035631	-5.495616	-63.207853	-1.415803
34612		0.850450	-0.047229	-0.522718	-0.035646	-5.477969	-63.183688	-1.429582
34613		0.850571	-0.047079	-0.522541	-0.035534	-5.458697	-63.159006	-1.427347
34614		0.850691	-0.047023	-0.522351	-0.035531	-5.445256	-63.133346	-1.436208
34615		0.850784	-0.046931	-0.522211	-0.035493	-5.429090	-63.114164	-1.441856
34616		0.850882	-0.046864	-0.522058	-0.035485	-5.414576	-63.093350	-1.450413
34617		0.850960	-0.046856	-0.521929	-0.035524	-5.406391	-63.076329	-1.461415
34618		0.851046	-0.046799	-0.521794	-0.035514	-5.394233	-63.058062	-1.468202
34619		0.851119	-0.046850	-0.521664	-0.035624	-5.389681	-63.041275	-1.486554
34620		0.851181	-0.046755	-0.521573	-0.035592	-5.372667	-63.028786	-1.493142
34621		0.851224	-0.046799	-0.521492	-0.035695	-5.367793	-63.018569	-1.510343
34622		0.851267	-0.046719	-0.521428	-0.035692	-5.350421	-63.009851	-1.520942
34623		0.851304	-0.046772	-0.521359	-0.035772	-5.350884	-63.001131	-1.531683
34624		0.851354	-0.046716	-0.521282	-0.035764	-5.339081	-62.990672	-1.538361
34625		0.851399	-0.046736	-0.521203	-0.035828	-5.334282	-62.980502	-1.550274
34626		0.851463	-0.046692	-0.521102	-0.035823	-5.324739	-62.966766	-1.555955
34627		0.851519	-0.046592	-0.521025	-0.035746	-5.312663	-62.955812	-1.553363
34628		0.851569	-0.046568	-0.520945	-0.035747	-5.306743	-62.944987	-1.557526
34629		0.851627	-0.046595	-0.520845	-0.035797	-5.305054	-62.931987	-1.565791
34630		0.851672	-0.046569	-0.520772	-0.035802	-5.298142	-62.922182	-1.571145
34631		0.851699	-0.046616	-0.520718	-0.035892	-5.296111	-62.915530	-1.584704
34632		0.851736	-0.046603	-0.520659	-0.035902	-5.291611	-62.907670	-1.589054
34633		0.851769	-0.046625	-0.520599	-0.035933	-5.291833	-62.899913	-1.593408
34634		0.851810	-0.046623	-0.520533	-0.035935	-5.290553	-62.890979	-1.594850
34635		0.851839	-0.046528	-0.520501	-0.035834	-5.283239	-62.885872	-1.585826
34636		0.851880	-0.046535	-0.520434	-0.035833	-5.284163	-62.876888	-1.585565
34637		0.851912	-0.046682	-0.520357	-0.035995	-5.294025	-62.867840	-1.601659
34638		0.851953	-0.046695	-0.520287	-0.036011	-5.294180	-62.858646	-1.604024
34639		0.851969	-0.046729	-0.520256	-0.036041	-5.297280	-62.854715	-1.606309
34640		0.851998	-0.046768	-0.520205	-0.036050	-5.304122	-62.847982	-1.603578
34641		0.852017	-0.046875	-0.520159	-0.036128	-5.316436	-62.842464	-1.606825
34642		0.852036	-0.046919	-0.520122	-0.036144	-5.323472	-62.837726	-1.604802
34643		0.852062	-0.046947	-0.520078	-0.036141	-5.329627	-62.831817	-1.600881
34644		0.852085	-0.047034	-0.520030	-0.036157	-5.345694	-62.825644	-1.593505
34645		0.852096	-0.047274	-0.519975	-0.036383	-5.367369	-62.820096	-1.610805
34646		0.852130	-0.047319	-0.519912	-0.036422	-5.371467	-62.811972	-1.613827
34647		0.852169	-0.047343	-0.519849	-0.036385	-5.380742	-62.803422	-1.603638
34648		0.852202	-0.047367	-0.519791	-0.036395	-5.384185	-62.795764	-1.603112
34649		0.852218	-0.047439	-0.519756	-0.036451	-5.391920	-62.791460	-1.606139
34650		0.852239	-0.047448	-0.519720	-0.036449	-5.394020	-62.786674	-1.604674
34651		0.852275	-0.047429	-0.519668	-0.036384	-5.397826	-62.779241	-1.593955
34652		0.852296	-0.047462	-0.519629	-0.036392	-5.403547	-62.774142	-1.591728
34653		0.852306	-0.047547	-0.519601	-0.036449	-5.414027	-62.770879	-1.593145
34654		0.852317	-0.047540	-0.519585	-0.036424	-5.415668	-62.768555	-1.588834
34655		0.852328	-0.047537	-0.519569	-0.036397	-5.418339	-62.766267	-1.583774
34656		0.852359	-0.047559	-0.519518	-0.036383	-5.424631	-62.759381	-1.578235
34657		0.852396	-0.047642	-0.519447	-0.036409	-5.438313	-62.750164	-1.573826
34658		0.852436	-0.047725	-0.519374	-0.036404	-5.456035	-62.740550	-1.562699
34659		0.852495	-0.047860	-0.519264	-0.036418	-5.482116	-62.726093	-1.549307
34660		0.852552	-0.048015	-0.519155	-0.036440	-5.511586	-62.711895	-1.534757
34661		0.852576	-0.048189	-0.519091	-0.036564	-5.532296	-62.704440	-1.539137
34662		0.852645	-0.048356	-0.518958	-0.036616	-5.560123	-62.687207	-1.529867
34663		0.852667	-0.048540	-0.518897	-0.036729	-5.584077	-62.680125	-1.530763
34664		0.852666	-0.048565	-0.518897	-0.036712	-5.591613	-62.680048	-1.524003
34665		0.852641	-0.048504	-0.518954	-0.036580	-5.596295	-62.686715	-1.503055
34666		0.852638	-0.048540	-0.518956	-0.036571	-5.605140	-62.686996	-1.496511
34667		0.852589	-0.048564	-0.519034	-0.036559	-5.612534	-62.697437	-1.489937
34668		0.852548	-0.048574	-0.519103	-0.036537	-5.617941	-62.706492	-1.483347
34669		0.852495	-0.048647	-0.519178	-0.036605	-5.625462	-62.717180	-1.487422
34670		0.852458	-0.048547	-0.519252	-0.036541	-5.613011	-62.726575	-1.486038
34671		0.852393	-0.048507	-0.519363	-0.036540	-5.605734	-62.741268	-1.489694
34672		0.852352	-0.048426	-0.519439	-0.036510	-5.592947	-62.751222	-1.493050
34673		0.852321	-0.048376	-0.519499	-0.036464	-5.588692	-62.758862	-1.489171
34674		0.852293	-0.048344	-0.519552	-0.036407	-5.589872	-62.765460	-1.480511
34675		0.852267	-0.048340	-0.519597	-0.036373	-5.593806	-62.771322	-1.473261
34676		0.852244	-0.048358	-0.519636	-0.036332	-5.603231	-62.776266	-1.461887
34677		0.852205	-0.048445	-0.519687	-0.036403	-5.613224	-62.783775	-1.464983
34678		0.852168	-0.048457	-0.519748	-0.036377	-5.619681	-62.791796	-1.457162
34679		0.852114	-0.048408	-0.519847	-0.036307	-5.619099	-62.804505	-1.447658
34680		0.852066	-0.048400	-0.519926	-0.036306	-5.618287	-62.815103	-1.447500
34681		0.852010	-0.048374	-0.520022	-0.036267	-5.618786	-62.827715	-1.441434
34682		0.851963	-0.048372	-0.520099	-0.036281	-5.617197	-62.838110	-1.443901
34683		0.851905	-0.048443	-0.520183	-0.036339	-5.625513	-62.849871	-1.446175
34684		0.851862	-0.048493	-0.520248	-0.036352	-5.635163	-62.858758	-1.441592
34685		0.851846	-0.048582	-0.520263	-0.036382	-5.650525	-62.861168	-1.436186
34686		0.851827	-0.048608	-0.520293	-0.036382	-5.656342	-62.865145	-1.432438
34687		0.851822	-0.048800	-0.520274	-0.036503	-5.681550	-62.863826	-1.433377
34688		0.851801	-0.048698	-0.520326	-0.036399	-5.673801	-62.869917	-1.423864
34689		0.851772	-0.048719	-0.520371	-0.036385	-5.680413	-62.875908	-1.417770
34690		0.851774	-0.048748	-0.520366	-0.036375	-5.688123	-62.875219	-1.411680
34691		0.851755	-0.048741	-0.520401	-0.036336	-5.692032	-62.879643	-1.403849
34692		0.851743	-0.048741	-0.520422	-0.036329	-5.693139	-62.882348	-1.402085
34693		0.851704	-0.048676	-0.520497	-0.036240	-5.691399	-62.891785	-1.390896
34694		0.851703	-0.048663	-0.520503	-0.036200	-5.693960	-62.892280	-1.383914
34695		0.851666	-0.048709	-0.520556	-0.036253	-5.697322	-62.899738	-1.388674
34696		0.851648	-0.048703	-0.520588	-0.036216	-5.701222	-62.903814	-1.381128
34697		0.851630	-0.048673	-0.520625	-0.036148	-5.703877	-62.908356	-1.370188
34698		0.851610	-0.048663	-0.520663	-0.036106	-5.707679	-62.913044	-1.361914
34699		0.851587	-0.048629	-0.520706	-0.036058	-5.707104	-62.918465	-1.355648
34700		0.851558	-0.048627	-0.520753	-0.036057	-5.707349	-62.924808	-1.355013
34701		0.851523	-0.048716	-0.520797	-0.036141	-5.715720	-62.931424	-1.361003
34702		0.851508	-0.048750	-0.520817	-0.036152	-5.721788	-62.934173	-1.358670
34703		0.851492	-0.048745	-0.520845	-0.036139	-5.722656	-62.937916	-1.356229
34704		0.851480	-0.048774	-0.520860	-0.036159	-5.726616	-62.940111	-1.356321
34705		0.851470	-0.048871	-0.520863	-0.036233	-5.737797	-62.941139	-1.359468
34706		0.851458	-0.048918	-0.520877	-0.036247	-5.746182	-62.943218	-1.356153
34707		0.851437	-0.048881	-0.520918	-0.036187	-5.746500	-62.948258	-1.347537
34708		0.851414	-0.048934	-0.520950	-0.036218	-5.754216	-62.952748	-1.346802
34709		0.851379	-0.049003	-0.520995	-0.036288	-5.760269	-62.959464	-1.352219
34710		0.851358	-0.049052	-0.521022	-0.036327	-5.765882	-62.963399	-1.353909
34711		0.851321	-0.049049	-0.521085	-0.036295	-5.770135	-62.971650	-1.346647
34712		0.851288	-0.049098	-0.521131	-0.036335	-5.775873	-62.978193	-1.348278
34713		0.851255	-0.049145	-0.521177	-0.036386	-5.779590	-62.984772	-1.352604
34714		0.851227	-0.049178	-0.521217	-0.036427	-5.781899	-62.990405	-1.356457
34715		0.851206	-0.049216	-0.521246	-0.036446	-5.787897	-62.994480	-1.355169
34716		0.851176	-0.049220	-0.521291	-0.036489	-5.783468	-63.000899	-1.363414
34717		0.851148	-0.049253	-0.521331	-0.036555	-5.782229	-63.006697	-1.372799
34718		0.851124	-0.049248	-0.521367	-0.036586	-5.777470	-63.011733	-1.379653
34719		0.851090	-0.049221	-0.521423	-0.036616	-5.768242	-63.019433	-1.388972
34720		0.851077	-0.049224	-0.521440	-0.036672	-5.761663	-63.022076	-1.400441
34721		0.851048	-0.049265	-0.521477	-0.036759	-5.759529	-63.027761	-1.413150
34722		0.851035	-0.049277	-0.521494	-0.036812	-5.755165	-63.030345	-1.422913
34723		0.851002	-0.049338	-0.521533	-0.036935	-5.752617	-63.036624	-1.440733
34724		0.850970	-0.049335	-0.521582	-0.036991	-5.745067	-63.043512	-1.452618
34725		0.850948	-0.049280	-0.521626	-0.036955	-5.738228	-63.049138	-1.451772
34726		0.850925	-0.049304	-0.521657	-0.037013	-5.736299	-63.053660	-1.460504
34727		0.850892	-0.049265	-0.521712	-0.037048	-5.723585	-63.061188	-1.472789
34728		0.850865	-0.049279	-0.521750	-0.037113	-5.718435	-63.066791	-1.484428
34729		0.850830	-0.049410	-0.521781	-0.037306	-5.721467	-63.072492	-1.508367
34730		0.850798	-0.049413	-0.521827	-0.037378	-5.713104	-63.079174	-1.522913
34731		0.850768	-0.049454	-0.521866	-0.037468	-5.710623	-63.085099	-1.536220
34732		0.850745	-0.049473	-0.521899	-0.037509	-5.709486	-63.089818	-1.542317
34733		0.850731	-0.049453	-0.521923	-0.037520	-5.703975	-63.093028	-1.546985
34734		0.850704	-0.049452	-0.521964	-0.037571	-5.697396	-63.098882	-1.557705
34735		0.850679	-0.049495	-0.521997	-0.037622	-5.700140	-63.103751	-1.562626
34736		0.850654	-0.049498	-0.522033	-0.037679	-5.693659	-63.108991	-1.574074
34737		0.850624	-0.049434	-0.522090	-0.037636	-5.685972	-63.116252	-1.572686
34738		0.850599	-0.049454	-0.522125	-0.037688	-5.683922	-63.121381	-1.580711
34739		0.850564	-0.049612	-0.522154	-0.037883	-5.692529	-63.126853	-1.601535
34740		0.850527	-0.049631	-0.522207	-0.037954	-5.687586	-63.134440	-1.613870
34741		0.850484	-0.049679	-0.522267	-0.038025	-5.689259	-63.143157	-1.621961
34742		0.850440	-0.049677	-0.522335	-0.038082	-5.681785	-63.152636	-1.633846
34743		0.850399	-0.049761	-0.522385	-0.038197	-5.685205	-63.160249	-1.646952
34744		0.850369	-0.049765	-0.522430	-0.038240	-5.680735	-63.166655	-1.655250
34745		0.850330	-0.049739	-0.522496	-0.038259	-5.673305	-63.175544	-1.661949
34746		0.850290	-0.049718	-0.522561	-0.038282	-5.666199	-63.184454	-1.669074
34747		0.850259	-0.049574	-0.522632	-0.038187	-5.648221	-63.193080	-1.667010
34748		0.850235	-0.049546	-0.522671	-0.038207	-5.639760	-63.198414	-1.674714
34749		0.850219	-0.049440	-0.522713	-0.038130	-5.627504	-63.203336	-1.671671
34750		0.850200	-0.049432	-0.522744	-0.038140	-5.624492	-63.207538	-1.674738
34751		0.850185	-0.049299	-0.522789	-0.038028	-5.610921	-63.212608	-1.667786
34752		0.850176	-0.049341	-0.522799	-0.038051	-5.617217	-63.214146	-1.666868
34753		0.850156	-0.049431	-0.522815	-0.038142	-5.624809	-63.217091	-1.674324
34754		0.850132	-0.049399	-0.522859	-0.038127	-5.620165	-63.222776	-1.675018
34755		0.850128	-0.049476	-0.522855	-0.038166	-5.631668	-63.222693	-1.673107
34756		0.850148	-0.049596	-0.522807	-0.038229	-5.648902	-63.216869	-1.671342
34757		0.850088	-0.049534	-0.522912	-0.038210	-5.638938	-63.230719	-1.674259
34758		0.850023	-0.049521	-0.523022	-0.038179	-5.641133	-63.245278	-1.668191
34759		0.849971	-0.049602	-0.523094	-0.038236	-5.651802	-63.255510	-1.668895
34760		0.849918	-0.049627	-0.523179	-0.038228	-5.658977	-63.266898	-1.662991
34761		0.849843	-0.049672	-0.523291	-0.038290	-5.661481	-63.282519	-1.669149
34762		0.849807	-0.049658	-0.523353	-0.038272	-5.661436	-63.290696	-1.666333
34763		0.849782	-0.049596	-0.523402	-0.038227	-5.654455	-63.296837	-1.664409
34764		0.849735	-0.049486	-0.523493	-0.038157	-5.640809	-63.308440	-1.662811
34765		0.849692	-0.049290	-0.523595	-0.037983	-5.622238	-63.320609	-1.650332
34766		0.849649	-0.049218	-0.523671	-0.037979	-5.607671	-63.330738	-1.658367
34767		0.849585	-0.049285	-0.523762	-0.038068	-5.611158	-63.343594	-1.667799
34768		0.849559	-0.049258	-0.523810	-0.038046	-5.608663	-63.349831	-1.666034
34769		0.849522	-0.049256	-0.523869	-0.038056	-5.607391	-63.357849	-1.667826
34770		0.849507	-0.049234	-0.523895	-0.038048	-5.603963	-63.361284	-1.668769
34771		0.849477	-0.049286	-0.523936	-0.038097	-5.608967	-63.367198	-1.672063
34772		0.849452	-0.049263	-0.523979	-0.038080	-5.606579	-63.372823	-1.671021
34773		0.849441	-0.049238	-0.524001	-0.038058	-5.604263	-63.375615	-1.669365
34774		0.849417	-0.049174	-0.524048	-0.038036	-5.593740	-63.381652	-1.672590
34775		0.849397	-0.049163	-0.524082	-0.038023	-5.593365	-63.386093	-1.670989
34776		0.849368	-0.049114	-0.524135	-0.038000	-5.586311	-63.393044	-1.671953
34777		0.849348	-0.049114	-0.524167	-0.038009	-5.585349	-63.397387	-1.673569
34778		0.849329	-0.049091	-0.524200	-0.038006	-5.580921	-63.401840	-1.675715
34779		0.849311	-0.048942	-0.524254	-0.037860	-5.568432	-63.407824	-1.663533
34780		0.849308	-0.048928	-0.524261	-0.037849	-5.567122	-63.408601	-1.662793
34781		0.849295	-0.049043	-0.524261	-0.037982	-5.574339	-63.409711	-1.676179
34782		0.849302	-0.049058	-0.524249	-0.037972	-5.578718	-63.408139	-1.672221
34783		0.849306	-0.049103	-0.524234	-0.038039	-5.579618	-63.406580	-1.680730
34784		0.849293	-0.048956	-0.524276	-0.037951	-5.559639	-63.411324	-1.681091
34785		0.849285	-0.048939	-0.524293	-0.037903	-5.562545	-63.413359	-1.672691
34786		0.849280	-0.048937	-0.524302	-0.037899	-5.562572	-63.414494	-1.672147
34787		0.849283	-0.048929	-0.524298	-0.037887	-5.562432	-63.413923	-1.670617
34788		0.849254	-0.048898	-0.524351	-0.037859	-5.559872	-63.420763	-1.668105
34789		0.849243	-0.048888	-0.524371	-0.037838	-5.560797	-63.423292	-1.664565
34790		0.849239	-0.048886	-0.524379	-0.037805	-5.564805	-63.424162	-1.657683
34791		0.849218	-0.048898	-0.524414	-0.037795	-5.569067	-63.428811	-1.653467
34792		0.849214	-0.048898	-0.524424	-0.037744	-5.576143	-63.429825	-1.642181
34793		0.849200	-0.048917	-0.524448	-0.037701	-5.586065	-63.432823	-1.630176
34794		0.849208	-0.048917	-0.524439	-0.037649	-5.593015	-63.431234	-1.618945
34795		0.849206	-0.048936	-0.524442	-0.037621	-5.601052	-63.431483	-1.610112
34796		0.849198	-0.048950	-0.524456	-0.037588	-5.608544	-63.433265	-1.600956
34797		0.849192	-0.048880	-0.524482	-0.037448	-5.612327	-63.435704	-1.579652
34798		0.849164	-0.048879	-0.524529	-0.037417	-5.616610	-63.441772	-1.572639
34799		0.849142	-0.048955	-0.524554	-0.037474	-5.625837	-63.445628	-1.574448
34800		0.849120	-0.048962	-0.524591	-0.037455	-5.630313	-63.450476	-1.568894
34801		0.849095	-0.049005	-0.524626	-0.037466	-5.638594	-63.455450	-1.565027
34802		0.849085	-0.049009	-0.524642	-0.037464	-5.639871	-63.457556	-1.563939
34803		0.849078	-0.049024	-0.524653	-0.037447	-5.645533	-63.458886	-1.558090
34804		0.849067	-0.049037	-0.524668	-0.037472	-5.645069	-63.461208	-1.561607
34805		0.849065	-0.049135	-0.524656	-0.037572	-5.653048	-63.460314	-1.570223
34806		0.849043	-0.049137	-0.524689	-0.037590	-5.651401	-63.464877	-1.573474
34807		0.849038	-0.049059	-0.524709	-0.037523	-5.643491	-63.467069	-1.569245
34808		0.849024	-0.049076	-0.524730	-0.037539	-5.645180	-63.469946	-1.570291
34809		0.848992	-0.049235	-0.524754	-0.037709	-5.657177	-63.474626	-1.585623
34810		0.848970	-0.049239	-0.524789	-0.037709	-5.658607	-63.479331	-1.584462
34811		0.848944	-0.049259	-0.524828	-0.037728	-5.660670	-63.484832	-1.585643
34812		0.848920	-0.049266	-0.524866	-0.037738	-5.661184	-63.489950	-1.586418
34813		0.848896	-0.049297	-0.524900	-0.037762	-5.665033	-63.494764	-1.587092
34814		0.848867	-0.049284	-0.524945	-0.037782	-5.660051	-63.501013	-1.592549
34815		0.848838	-0.049342	-0.524983	-0.037851	-5.663781	-63.506572	-1.599352
34816		0.848821	-0.049355	-0.525008	-0.037862	-5.665398	-63.510059	-1.599656
34817		0.848803	-0.049388	-0.525032	-0.037887	-5.669223	-63.513620	-1.600591
34818		0.848788	-0.049390	-0.525055	-0.037890	-5.669516	-63.516748	-1.600696
34819		0.848760	-0.049509	-0.525082	-0.037995	-5.681656	-63.521247	-1.607139
34820		0.848744	-0.049513	-0.525108	-0.038008	-5.681037	-63.524789	-1.609181
34821		0.848705	-0.049537	-0.525167	-0.038016	-5.685722	-63.532841	-1.606997
34822		0.848674	-0.049540	-0.525218	-0.038006	-5.688242	-63.539730	-1.603811
34823		0.848631	-0.049551	-0.525289	-0.037972	-5.695865	-63.549014	-1.594168
34824		0.848590	-0.049544	-0.525357	-0.037956	-5.697209	-63.558141	-1.590705
34825		0.848535	-0.049591	-0.525440	-0.037969	-5.706331	-63.569372	-1.586436
34826		0.848496	-0.049596	-0.525503	-0.037956	-5.710024	-63.577835	-1.581957
34827		0.848456	-0.049653	-0.525563	-0.037961	-5.722216	-63.586016	-1.574767
34828		0.848422	-0.049660	-0.525619	-0.037943	-5.726928	-63.593455	-1.569075
34829		0.848384	-0.049637	-0.525686	-0.037868	-5.732582	-63.602017	-1.555109
34830		0.848359	-0.049690	-0.525724	-0.037846	-5.747488	-63.606994	-1.542693
34831		0.848333	-0.049812	-0.525748	-0.037929	-5.763162	-63.610997	-1.544072
34832		0.848311	-0.049851	-0.525781	-0.037918	-5.773660	-63.615475	-1.535881
34833		0.848284	-0.049872	-0.525826	-0.037875	-5.784466	-63.621305	-1.523053
34834		0.848266	-0.049928	-0.525849	-0.037872	-5.797391	-63.624509	-1.514588
34835		0.848233	-0.049994	-0.525895	-0.037889	-5.810071	-63.630919	-1.508777
34836		0.848211	-0.050043	-0.525928	-0.037876	-5.822839	-63.635337	-1.498821
34837		0.848168	-0.050022	-0.526002	-0.037821	-5.826439	-63.644868	-1.488732
34838		0.848139	-0.050078	-0.526044	-0.037819	-5.839541	-63.650665	-1.480160
34839		0.848096	-0.050080	-0.526114	-0.037796	-5.843679	-63.659990	-1.474097
34840		0.848060	-0.050128	-0.526167	-0.037812	-5.852602	-63.667281	-1.470412
34841		0.848027	-0.050191	-0.526212	-0.037834	-5.863993	-63.673656	-1.465974
34842		0.848012	-0.050243	-0.526231	-0.037840	-5.874768	-63.676306	-1.459973
34843		0.847995	-0.050267	-0.526259	-0.037799	-5.885877	-63.679807	-1.447479
34844		0.847983	-0.050314	-0.526273	-0.037814	-5.894477	-63.681906	-1.443970
34845		0.847966	-0.050391	-0.526291	-0.037843	-5.907534	-63.684593	-1.439781
34846		0.847953	-0.050450	-0.526306	-0.037836	-5.921503	-63.686764	-1.430073
34847		0.847943	-0.050384	-0.526340	-0.037697	-5.926178	-63.690202	-1.408215
34848		0.847931	-0.050478	-0.526348	-0.037733	-5.942129	-63.691681	-1.403058
34849		0.847914	-0.050512	-0.526373	-0.037705	-5.953592	-63.694909	-1.392091
34850		0.847887	-0.050564	-0.526411	-0.037712	-5.964554	-63.700147	-1.385969
34851		0.847886	-0.050774	-0.526384	-0.037821	-5.995792	-63.697717	-1.381368
34852		0.847895	-0.050930	-0.526354	-0.037847	-6.026299	-63.693997	-1.366072
34853		0.847833	-0.050888	-0.526461	-0.037795	-6.025276	-63.708021	-1.359069
34854		0.847774	-0.050938	-0.526551	-0.037784	-6.038654	-63.720203	-1.348712
34855		0.847721	-0.051030	-0.526632	-0.037745	-6.065113	-63.730903	-1.326614
34856		0.847669	-0.051095	-0.526709	-0.037733	-6.081861	-63.741388	-1.314021
34857		0.847598	-0.051210	-0.526807	-0.037803	-6.098881	-63.755225	-1.312267
34858		0.847557	-0.051268	-0.526868	-0.037802	-6.112280	-63.763590	-1.303468
34859		0.847512	-0.051235	-0.526948	-0.037735	-6.115010	-63.773778	-1.292273
34860		0.847443	-0.051215	-0.527061	-0.037746	-6.110518	-63.789034	-1.295816
34861		0.847381	-0.051211	-0.527162	-0.037734	-6.112462	-63.802570	-1.292301
34862		0.847325	-0.051215	-0.527252	-0.037725	-6.115513	-63.814627	-1.288726
34863		0.847268	-0.051245	-0.527337	-0.037761	-6.118064	-63.826472	-1.291445
34864		0.847243	-0.051272	-0.527376	-0.037747	-6.126353	-63.831588	-1.284126
34865		0.847218	-0.051274	-0.527420	-0.037695	-6.134611	-63.837218	-1.271636
34866		0.847195	-0.051314	-0.527453	-0.037684	-6.145249	-63.841665	-1.263296
34867		0.847176	-0.051346	-0.527482	-0.037673	-6.154232	-63.845481	-1.256086
34868		0.847161	-0.051375	-0.527503	-0.037668	-6.161404	-63.848422	-1.250828
34869		0.847159	-0.051369	-0.527510	-0.037626	-6.165988	-63.848970	-1.242254
34870		0.847152	-0.051401	-0.527518	-0.037641	-6.171102	-63.850157	-1.241017
34871		0.847132	-0.051466	-0.527537	-0.037727	-6.173964	-63.853512	-1.250762
34872		0.847139	-0.051502	-0.527521	-0.037747	-6.178951	-63.851502	-1.250403
34873		0.847143	-0.051623	-0.527495	-0.037846	-6.191675	-63.848952	-1.256064
34874		0.847153	-0.051662	-0.527474	-0.037872	-6.196737	-63.846336	-1.256458
34875		0.847166	-0.051690	-0.527451	-0.037859	-6.204266	-63.843218	-1.250186
34876		0.847183	-0.051744	-0.527417	-0.037883	-6.212668	-63.838909	-1.248373
34877		0.847211	-0.051791	-0.527367	-0.037890	-6.221500	-63.832257	-1.244126
34878		0.847232	-0.051877	-0.527320	-0.037935	-6.233730	-63.826422	-1.242987
34879		0.847259	-0.051808	-0.527289	-0.037873	-6.226716	-63.821627	-1.239090
34880		0.847270	-0.051761	-0.527277	-0.037842	-6.220224	-63.819785	-1.239102
34881		0.847301	-0.051855	-0.527213	-0.037924	-6.229125	-63.811778	-1.245026
34882		0.847321	-0.051881	-0.527178	-0.037945	-6.231638	-63.807240	-1.246563
34883		0.847321	-0.051865	-0.527179	-0.037952	-6.227180	-63.807425	-1.250259
34884		0.847313	-0.051844	-0.527195	-0.037930	-6.225777	-63.809430	-1.247986
34885		0.847343	-0.051753	-0.527162	-0.037839	-6.217618	-63.804181	-1.240984
34886		0.847360	-0.051719	-0.527139	-0.037835	-6.210417	-63.800940	-1.245190
34887		0.847365	-0.051730	-0.527129	-0.037847	-6.211189	-63.799746	-1.246339
34888		0.847396	-0.051716	-0.527079	-0.037862	-6.205281	-63.793057	-1.252354
34889		0.847432	-0.051636	-0.527032	-0.037821	-6.192838	-63.786380	-1.254868
34890		0.847485	-0.051608	-0.526949	-0.037831	-6.184203	-63.775172	-1.262135
34891		0.847533	-0.051604	-0.526867	-0.037890	-6.174403	-63.764546	-1.276651
34892		0.847599	-0.051587	-0.526760	-0.037931	-6.163895	-63.750366	-1.289408
34893		0.847658	-0.051634	-0.526655	-0.038009	-6.162368	-63.736931	-1.301611
34894		0.847721	-0.051604	-0.526553	-0.038048	-6.149552	-63.723415	-1.315352
34895		0.847790	-0.051653	-0.526432	-0.038130	-6.147633	-63.707693	-1.328459
34896		0.847877	-0.051672	-0.526287	-0.038169	-6.144929	-63.688486	-1.336324
34897		0.847959	-0.051742	-0.526142	-0.038247	-6.148095	-63.669595	-1.345726
34898		0.848051	-0.051755	-0.525990	-0.038284	-6.144156	-63.649418	-1.354131
34899		0.848145	-0.051805	-0.525830	-0.038345	-6.145160	-63.628374	-1.362752
34900		0.848239	-0.051830	-0.525672	-0.038386	-6.143584	-63.607522	-1.370132
34901		0.848327	-0.051895	-0.525516	-0.038480	-6.143315	-63.587320	-1.383959
34902		0.848432	-0.051908	-0.525344	-0.038487	-6.143257	-63.564241	-1.386071
34903		0.848529	-0.051918	-0.525184	-0.038530	-6.137982	-63.543019	-1.396108
34904		0.848637	-0.051903	-0.525011	-0.038535	-6.132118	-63.519696	-1.401493
34905		0.848736	-0.051834	-0.524861	-0.038484	-6.122352	-63.499017	-1.401587
34906		0.848846	-0.051802	-0.524688	-0.038466	-6.116020	-63.475517	-1.404074
34907		0.848933	-0.051783	-0.524550	-0.038463	-6.110549	-63.456916	-1.407971
34908		0.849014	-0.051756	-0.524420	-0.038467	-6.102776	-63.439446	-1.414076
34909		0.849091	-0.051734	-0.524299	-0.038462	-6.097448	-63.423013	-1.417508
34910		0.849150	-0.051691	-0.524208	-0.038444	-6.089539	-63.410570	-1.420518
34911		0.849195	-0.051710	-0.524128	-0.038532	-6.080902	-63.400473	-1.438200
34912		0.849257	-0.051648	-0.524035	-0.038509	-6.069446	-63.387729	-1.442730
34913		0.849301	-0.051497	-0.523984	-0.038420	-6.048013	-63.380025	-1.444226
34914		0.849359	-0.051377	-0.523906	-0.038382	-6.026054	-63.368981	-1.453231
34915		0.849419	-0.051260	-0.523825	-0.038313	-6.009029	-63.357429	-1.454928
34916		0.849481	-0.051101	-0.523743	-0.038266	-5.979985	-63.345774	-1.466958
34917		0.849541	-0.050958	-0.523665	-0.038199	-5.956917	-63.334545	-1.472577
34918		0.849603	-0.050793	-0.523585	-0.038135	-5.928742	-63.323068	-1.481896
34919		0.849656	-0.050708	-0.523505	-0.038157	-5.906488	-63.312336	-1.499004
34920		0.849725	-0.050558	-0.523412	-0.038092	-5.881675	-63.299153	-1.506108
34921		0.849787	-0.050359	-0.523340	-0.037964	-5.854766	-63.288191	-1.505902
34922		0.849865	-0.050216	-0.523234	-0.037871	-5.835032	-63.273076	-1.506202
34923		0.849946	-0.050177	-0.523103	-0.037897	-5.821740	-63.255598	-1.518646
34924		0.850060	-0.050065	-0.522936	-0.037810	-5.807462	-63.232298	-1.516662
34925		0.850175	-0.049943	-0.522767	-0.037723	-5.791102	-63.208712	-1.515986
34926		0.850296	-0.049853	-0.522584	-0.037650	-5.779359	-63.183517	-1.514453
34927		0.850422	-0.049796	-0.522385	-0.037651	-5.765085	-63.156659	-1.524415
34928		0.850569	-0.049706	-0.522157	-0.037600	-5.750173	-63.125494	-1.528092
34929		0.850705	-0.049683	-0.521936	-0.037624	-5.739981	-63.095995	-1.538800
34930		0.850850	-0.049618	-0.521707	-0.037595	-5.727858	-63.064930	-1.543572
34931		0.850972	-0.049587	-0.521513	-0.037582	-5.720771	-63.038712	-1.547389
34932		0.851107	-0.049544	-0.521298	-0.037554	-5.713351	-63.009523	-1.549367
34933		0.851224	-0.049544	-0.521103	-0.037612	-5.703943	-62.983701	-1.564001
34934		0.851343	-0.049523	-0.520911	-0.037600	-5.699322	-62.957838	-1.566299
34935		0.851435	-0.049524	-0.520759	-0.037629	-5.694334	-62.937626	-1.574070
34936		0.851531	-0.049487	-0.520607	-0.037624	-5.685602	-62.917088	-1.579599
34937		0.851603	-0.049460	-0.520489	-0.037651	-5.675279	-62.901417	-1.590180
34938		0.851681	-0.049400	-0.520368	-0.037623	-5.665113	-62.884948	-1.593207
34939		0.851771	-0.049303	-0.520236	-0.037544	-5.653342	-62.866416	-1.590551
34940		0.851845	-0.049250	-0.520122	-0.037517	-5.644409	-62.850916	-1.593042
34941		0.851900	-0.049212	-0.520037	-0.037490	-5.639137	-62.839304	-1.593041
34942		0.851965	-0.049143	-0.519943	-0.037411	-5.633710	-62.825952	-1.586364
34943		0.852012	-0.049061	-0.519878	-0.037344	-5.624281	-62.816716	-1.583411
34944		0.852075	-0.048970	-0.519789	-0.037265	-5.614384	-62.804078	-1.579368
34945		0.852130	-0.048965	-0.519701	-0.037257	-5.613441	-62.792166	-1.579394
34946		0.852200	-0.048928	-0.519593	-0.037201	-5.611820	-62.777290	-1.573428
34947		0.852261	-0.048941	-0.519493	-0.037190	-5.615378	-62.763765	-1.570305
34948		0.852315	-0.048902	-0.519412	-0.037139	-5.612896	-62.752532	-1.565455
34949		0.852361	-0.048966	-0.519331	-0.037127	-5.627362	-62.741725	-1.555401
34950		0.852446	-0.049041	-0.519184	-0.037132	-5.641450	-62.722185	-1.548271
34951		0.852467	-0.049023	-0.519152	-0.037117	-5.639250	-62.717810	-1.547799
34952		0.852458	-0.048943	-0.519180	-0.037041	-5.632299	-62.720806	-1.541692
34953		0.852450	-0.048952	-0.519196	-0.037004	-5.639225	-62.722724	-1.532479
34954		0.852427	-0.048977	-0.519232	-0.036980	-5.648030	-62.727515	-1.523623
34955		0.852372	-0.049019	-0.519316	-0.037013	-5.653459	-62.739012	-1.524322
34956		0.852353	-0.049005	-0.519350	-0.037007	-5.651436	-62.743470	-1.524596
34957		0.852324	-0.049052	-0.519386	-0.037086	-5.651626	-62.748977	-1.534832
34958		0.852283	-0.048958	-0.519466	-0.037042	-5.637811	-62.759188	-1.536935
34959		0.852212	-0.048909	-0.519585	-0.037059	-5.626215	-62.775221	-1.545606
34960		0.852176	-0.048837	-0.519652	-0.037040	-5.613985	-62.783969	-1.550132
34961		0.852139	-0.048773	-0.519721	-0.037019	-5.603509	-62.793005	-1.553375
34962		0.852117	-0.048716	-0.519766	-0.036983	-5.596423	-62.798605	-1.552692
34963		0.852098	-0.048749	-0.519791	-0.037014	-5.599655	-62.802209	-1.554628
34964		0.852071	-0.048754	-0.519835	-0.036999	-5.603138	-62.808140	-1.550290
34965		0.852045	-0.048880	-0.519855	-0.037143	-5.611460	-62.811998	-1.564441
34966		0.852028	-0.048878	-0.519884	-0.037140	-5.611746	-62.815791	-1.563758
34967		0.852011	-0.048920	-0.519906	-0.037179	-5.615778	-62.819067	-1.566324
34968		0.851996	-0.048914	-0.519930	-0.037185	-5.613971	-62.822307	-1.568057
34969		0.851976	-0.048908	-0.519964	-0.037179	-5.613754	-62.826791	-1.567294
34970		0.851952	-0.048921	-0.519999	-0.037205	-5.613561	-62.831797	-1.570649
34971		0.851916	-0.048945	-0.520056	-0.037234	-5.615408	-62.839577	-1.573072
34972		0.851894	-0.048942	-0.520092	-0.037235	-5.614713	-62.844402	-1.573563
34973		0.851860	-0.048927	-0.520148	-0.037246	-5.610724	-62.852047	-1.577066
34974		0.851843	-0.048955	-0.520171	-0.037270	-5.613802	-62.855362	-1.578289
34975		0.851835	-0.049066	-0.520166	-0.037374	-5.623962	-62.855481	-1.586033
34976		0.851844	-0.049076	-0.520150	-0.037372	-5.626286	-62.853386	-1.584527
34977		0.851835	-0.048998	-0.520176	-0.037329	-5.615265	-62.856463	-1.585337
34978		0.851820	-0.048854	-0.520220	-0.037252	-5.594939	-62.861600	-1.587133
34979		0.851834	-0.048903	-0.520188	-0.037301	-5.598733	-62.857704	-1.591615
34980		0.851833	-0.048944	-0.520186	-0.037299	-5.607861	-62.857453	-1.585709
34981		0.851833	-0.048934	-0.520185	-0.037335	-5.600902	-62.857538	-1.594806
34982		0.851822	-0.048918	-0.520206	-0.037304	-5.601691	-62.860122	-1.590072
34983		0.851827	-0.048927	-0.520196	-0.037321	-5.601315	-62.858933	-1.592616
34984		0.851831	-0.048868	-0.520199	-0.037273	-5.594901	-62.858882	-1.590146
34985		0.851823	-0.048884	-0.520208	-0.037312	-5.593430	-62.860426	-1.596145
34986		0.851836	-0.048865	-0.520188	-0.037298	-5.590973	-62.857651	-1.595878
34987		0.851832	-0.048881	-0.520192	-0.037336	-5.589354	-62.858363	-1.602012
34988		0.851841	-0.048827	-0.520183	-0.037319	-5.580140	-62.856966	-1.605338
34989		0.851862	-0.048790	-0.520151	-0.037340	-5.569043	-62.852787	-1.615155
34990		0.851871	-0.048679	-0.520147	-0.037322	-5.547485	-62.851894	-1.625954
34991		0.851889	-0.048599	-0.520126	-0.037305	-5.532465	-62.848797	-1.632985
34992		0.851910	-0.048476	-0.520107	-0.037255	-5.512398	-62.845652	-1.638549
34993		0.851932	-0.048380	-0.520083	-0.037216	-5.496730	-62.842090	-1.642997
34994		0.851967	-0.048245	-0.520042	-0.037156	-5.475262	-62.835953	-1.648384
34995		0.851994	-0.048163	-0.520005	-0.037164	-5.456353	-62.830792	-1.661147
34996		0.852025	-0.048009	-0.519972	-0.037115	-5.429544	-62.825781	-1.671061
34997		0.852036	-0.047936	-0.519957	-0.037158	-5.407854	-62.823970	-1.690259
34998		0.852059	-0.047778	-0.519939	-0.037089	-5.382981	-62.820718	-1.696273
34999		0.852073	-0.047622	-0.519935	-0.037035	-5.356514	-62.819603	-1.705128
35000		0.852084	-0.047473	-0.519936	-0.036964	-5.333963	-62.818907	-1.709390
35001		0.852081	-0.047275	-0.519969	-0.036817	-5.310976	-62.822099	-1.703497
35002		0.852084	-0.047162	-0.519978	-0.036750	-5.295296	-62.822647	-1.704113
35003		0.852078	-0.047114	-0.519994	-0.036746	-5.285672	-62.824596	-1.709340
35004		0.852089	-0.046991	-0.519993	-0.036667	-5.269707	-62.823739	-1.708536
35005		0.852085	-0.046803	-0.520023	-0.036556	-5.244071	-62.826758	-1.709157
35006		0.852082	-0.046675	-0.520045	-0.036492	-5.225138	-62.828982	-1.711895
35007		0.852061	-0.046579	-0.520089	-0.036480	-5.206358	-62.834683	-1.721644
35008		0.852043	-0.046414	-0.520138	-0.036402	-5.181695	-62.840451	-1.726003
35009		0.852013	-0.046277	-0.520205	-0.036323	-5.162959	-62.848669	-1.726480
35010		0.851976	-0.046124	-0.520285	-0.036240	-5.141698	-62.858582	-1.727880
35011		0.851937	-0.046041	-0.520359	-0.036200	-5.129465	-62.868084	-1.729739
35012		0.851888	-0.045914	-0.520457	-0.036110	-5.114885	-62.880461	-1.726040
35013		0.851831	-0.045761	-0.520573	-0.035963	-5.101947	-62.894821	-1.713729
35014		0.851777	-0.045667	-0.520677	-0.035867	-5.095140	-62.908029	-1.704467
35015		0.851704	-0.045607	-0.520803	-0.035839	-5.086811	-62.924711	-1.705206
35016		0.851638	-0.045519	-0.520924	-0.035760	-5.079315	-62.940343	-1.698543
35017		0.851574	-0.045458	-0.521040	-0.035676	-5.077806	-62.955234	-1.687699
35018		0.851517	-0.045377	-0.521148	-0.035569	-5.075339	-62.968939	-1.674294
35019		0.851462	-0.045300	-0.521251	-0.035467	-5.072808	-62.982069	-1.661731
35020		0.851404	-0.045228	-0.521359	-0.035358	-5.072564	-62.995720	-1.646612
35021		0.851345	-0.045137	-0.521472	-0.035233	-5.070160	-63.009979	-1.630812
35022		0.851304	-0.045090	-0.521550	-0.035129	-5.074395	-63.019708	-1.613807
35023		0.851242	-0.044993	-0.521669	-0.034997	-5.071865	-63.034747	-1.597062
35024		0.851189	-0.044953	-0.521764	-0.034909	-5.075413	-63.046902	-1.582648
35025		0.851134	-0.044876	-0.521870	-0.034777	-5.077114	-63.060220	-1.563362
35026		0.851074	-0.044830	-0.521977	-0.034688	-5.079605	-63.074000	-1.549376
35027		0.851011	-0.044774	-0.522091	-0.034584	-5.082099	-63.088574	-1.533340
35028		0.850964	-0.044736	-0.522178	-0.034492	-5.086696	-63.099691	-1.517690
35029		0.850893	-0.044757	-0.522291	-0.034506	-5.090446	-63.114941	-1.516650
35030		0.850836	-0.044703	-0.522391	-0.034444	-5.087830	-63.128026	-1.509434
35031		0.850791	-0.044679	-0.522472	-0.034378	-5.091985	-63.138431	-1.497659
35032		0.850753	-0.044646	-0.522539	-0.034330	-5.091702	-63.147047	-1.491017
35033		0.850722	-0.044642	-0.522591	-0.034311	-5.093755	-63.153978	-1.487022
35034		0.850699	-0.044604	-0.522634	-0.034270	-5.091224	-63.159431	-1.482884
35035		0.850682	-0.044565	-0.522672	-0.034183	-5.094751	-63.163886	-1.468716
35036		0.850637	-0.044528	-0.522752	-0.034115	-5.096458	-63.174258	-1.458125
35037		0.850601	-0.044514	-0.522815	-0.034068	-5.099944	-63.182320	-1.449453
35038		0.850538	-0.044446	-0.522928	-0.034008	-5.094098	-63.197073	-1.444346
35039		0.850475	-0.044407	-0.523038	-0.033940	-5.095692	-63.211434	-1.433740
35040		0.850411	-0.044354	-0.523149	-0.033893	-5.091224	-63.225957	-1.429598
35041		0.850338	-0.044363	-0.523265	-0.033920	-5.090437	-63.241700	-1.433172
35042		0.850294	-0.044315	-0.523344	-0.033873	-5.086921	-63.251983	-1.428645
35043		0.850264	-0.044299	-0.523394	-0.033867	-5.084884	-63.258626	-1.428779
35044		0.850242	-0.044250	-0.523435	-0.033847	-5.077111	-63.263993	-1.430725
35045		0.850226	-0.044249	-0.523463	-0.033836	-5.078682	-63.267613	-1.428080
35046		0.850215	-0.044234	-0.523483	-0.033805	-5.079629	-63.270176	-1.423251
35047		0.850219	-0.044334	-0.523466	-0.033858	-5.094085	-63.268343	-1.421603
35048		0.850241	-0.044377	-0.523427	-0.033836	-5.106120	-63.263042	-1.411353
35049		0.850252	-0.044425	-0.523405	-0.033833	-5.116692	-63.260128	-1.404566
35050		0.850253	-0.044403	-0.523408	-0.033785	-5.118357	-63.260259	-1.397122
35051		0.850270	-0.044539	-0.523366	-0.033833	-5.141190	-63.255082	-1.389712
35052		0.850313	-0.044675	-0.523281	-0.033891	-5.162315	-63.244196	-1.384965
35053		0.850296	-0.044651	-0.523314	-0.033846	-5.163272	-63.248304	-1.378062
35054		0.850262	-0.044619	-0.523374	-0.033822	-5.160099	-63.256181	-1.376486
35055		0.850231	-0.044694	-0.523419	-0.033799	-5.179730	-63.262293	-1.361120
35056		0.850192	-0.044755	-0.523477	-0.033804	-5.192936	-63.270222	-1.353387
35057		0.850137	-0.044819	-0.523558	-0.033846	-5.201893	-63.281502	-1.353040
35058		0.850111	-0.044832	-0.523600	-0.033818	-5.208735	-63.286945	-1.344912
35059		0.850114	-0.044830	-0.523597	-0.033795	-5.211442	-63.286409	-1.340125
35060		0.850084	-0.044771	-0.523655	-0.033740	-5.206565	-63.293704	-1.335389
35061		0.850028	-0.044741	-0.523750	-0.033723	-5.202886	-63.306403	-1.334966
35062		0.849998	-0.044752	-0.523799	-0.033700	-5.208747	-63.312874	-1.328015
35063		0.849974	-0.044763	-0.523836	-0.033701	-5.211464	-63.317914	-1.326233
35064		0.849970	-0.044762	-0.523844	-0.033669	-5.215731	-63.318796	-1.319226
35065		0.849976	-0.044760	-0.523839	-0.033616	-5.222144	-63.317776	-1.308167
35066		0.849986	-0.044780	-0.523822	-0.033583	-5.230758	-63.315349	-1.298572
35067		0.849976	-0.044843	-0.523833	-0.033609	-5.241180	-63.316981	-1.295549
35068		0.849972	-0.044849	-0.523839	-0.033593	-5.244595	-63.317692	-1.291232
35069		0.849981	-0.044816	-0.523830	-0.033561	-5.241693	-63.316267	-1.288826
35070		0.849968	-0.044795	-0.523854	-0.033543	-5.239542	-63.319310	-1.287619
35071		0.849955	-0.044772	-0.523877	-0.033540	-5.235201	-63.322347	-1.289786
35072		0.849947	-0.044767	-0.523890	-0.033531	-5.235405	-63.324139	-1.288369
35073		0.849925	-0.044768	-0.523927	-0.033526	-5.236722	-63.329063	-1.286674
35074		0.849917	-0.044772	-0.523941	-0.033515	-5.239145	-63.330802	-1.283541
35075		0.849898	-0.044767	-0.523974	-0.033481	-5.242873	-63.335121	-1.276567
35076		0.849885	-0.044768	-0.523995	-0.033474	-5.244302	-63.337890	-1.274620
35077		0.849884	-0.044830	-0.523990	-0.033508	-5.253212	-63.337463	-1.273703
35078		0.849880	-0.044859	-0.523993	-0.033503	-5.260210	-63.337900	-1.268644
35079		0.849875	-0.044885	-0.523999	-0.033511	-5.264787	-63.338822	-1.266906
35080		0.849894	-0.044906	-0.523967	-0.033517	-5.268315	-63.334530	-1.265693
35081		0.849885	-0.044859	-0.523986	-0.033506	-5.259777	-63.336931	-1.269360
35082		0.849874	-0.044827	-0.524007	-0.033480	-5.256347	-63.339597	-1.267921
35083		0.849864	-0.044894	-0.524017	-0.033495	-5.269171	-63.341162	-1.262011
35084		0.849860	-0.044917	-0.524022	-0.033474	-5.277034	-63.341768	-1.254254
35085		0.849812	-0.044994	-0.524091	-0.033527	-5.287183	-63.351407	-1.254782
35086		0.849818	-0.045009	-0.524080	-0.033518	-5.291738	-63.349890	-1.250778
35087		0.849811	-0.045138	-0.524075	-0.033594	-5.309370	-63.349978	-1.250221
35088		0.849781	-0.045149	-0.524124	-0.033571	-5.315297	-63.356443	-1.243217
35089		0.849750	-0.045194	-0.524170	-0.033588	-5.323477	-63.362747	-1.240112
35090		0.849723	-0.045209	-0.524214	-0.033570	-5.329478	-63.368611	-1.233855
35091		0.849681	-0.045264	-0.524276	-0.033595	-5.338689	-63.377135	-1.231125
35092		0.849653	-0.045288	-0.524320	-0.033575	-5.346921	-63.382944	-1.223143
35093		0.849609	-0.045328	-0.524386	-0.033595	-5.353605	-63.392038	-1.221388
35094		0.849584	-0.045364	-0.524425	-0.033579	-5.364133	-63.397194	-1.212434
35095		0.849532	-0.045360	-0.524511	-0.033554	-5.367407	-63.408680	-1.206614
35096		0.849498	-0.045367	-0.524566	-0.033554	-5.369289	-63.416056	-1.205182
35097		0.849467	-0.045431	-0.524607	-0.033611	-5.376119	-63.421993	-1.208389
35098		0.849445	-0.045437	-0.524642	-0.033610	-5.377830	-63.426765	-1.207064
35099		0.849417	-0.045457	-0.524685	-0.033624	-5.380687	-63.432624	-1.206944
35100		0.849394	-0.045489	-0.524719	-0.033616	-5.389075	-63.437233	-1.200449
35101		0.849370	-0.045534	-0.524752	-0.033653	-5.394077	-63.442032	-1.202233
35102		0.849336	-0.045560	-0.524803	-0.033683	-5.396461	-63.449020	-1.204473
35103		0.849300	-0.045616	-0.524856	-0.033691	-5.408115	-63.456341	-1.198010
35104		0.849264	-0.045671	-0.524908	-0.033723	-5.416254	-63.463596	-1.197017
35105		0.849217	-0.045779	-0.524969	-0.033810	-5.428699	-63.472478	-1.200650
35106		0.849179	-0.045818	-0.525024	-0.033857	-5.431461	-63.480273	-1.205044
35107		0.849136	-0.045856	-0.525087	-0.033901	-5.434408	-63.489045	-1.208798
35108		0.849102	-0.045923	-0.525133	-0.033936	-5.444853	-63.495646	-1.206825
35109		0.849066	-0.045946	-0.525187	-0.033982	-5.444279	-63.503146	-1.212995
35110		0.849047	-0.045986	-0.525212	-0.034014	-5.448785	-63.506877	-1.214373
35111		0.849016	-0.046060	-0.525249	-0.034122	-5.450861	-63.512643	-1.227504
35112		0.848994	-0.046087	-0.525280	-0.034151	-5.453081	-63.517026	-1.229847
35113		0.848962	-0.046101	-0.525329	-0.034179	-5.452923	-63.523777	-1.233461
35114		0.848926	-0.046122	-0.525382	-0.034222	-5.452165	-63.531248	-1.239360
35115		0.848899	-0.046135	-0.525423	-0.034250	-5.451664	-63.536927	-1.243241
35116		0.848880	-0.046180	-0.525446	-0.034298	-5.455301	-63.540492	-1.247322
35117		0.848848	-0.046231	-0.525487	-0.034403	-5.452673	-63.546760	-1.262823
35118		0.848838	-0.046257	-0.525499	-0.034431	-5.454709	-63.548542	-1.265285
35119		0.848813	-0.046311	-0.525528	-0.034522	-5.454571	-63.553122	-1.277493
35120		0.848801	-0.046331	-0.525543	-0.034563	-5.453441	-63.555389	-1.283633
35121		0.848789	-0.046372	-0.525553	-0.034649	-5.450847	-63.557406	-1.296840
35122		0.848794	-0.046376	-0.525542	-0.034690	-5.446058	-63.556152	-1.305375
35123		0.848794	-0.046406	-0.525532	-0.034795	-5.438362	-63.555570	-1.324280
35124		0.848802	-0.046405	-0.525516	-0.034844	-5.431405	-63.553772	-1.335305
35125		0.848818	-0.046447	-0.525482	-0.034912	-5.431084	-63.549617	-1.344788
35126		0.848833	-0.046420	-0.525457	-0.034954	-5.419362	-63.546519	-1.357865
35127		0.848856	-0.046411	-0.525420	-0.034977	-5.414006	-63.541612	-1.364511
35128		0.848883	-0.046410	-0.525375	-0.035011	-5.408807	-63.535751	-1.372505
35129		0.848904	-0.046389	-0.525342	-0.035011	-5.403793	-63.531349	-1.375786
35130		0.848933	-0.046383	-0.525293	-0.035053	-5.396430	-63.524941	-1.386261
35131		0.848958	-0.046456	-0.525238	-0.035159	-5.397457	-63.518428	-1.400237
35132		0.849002	-0.046430	-0.525168	-0.035195	-5.386402	-63.509093	-1.412325
35133		0.849049	-0.046363	-0.525098	-0.035192	-5.371479	-63.499552	-1.421514
35134		0.849088	-0.046318	-0.525035	-0.035238	-5.354990	-63.491345	-1.438222
35135		0.849134	-0.046298	-0.524961	-0.035276	-5.344722	-63.481514	-1.450140
35136		0.849182	-0.046252	-0.524885	-0.035297	-5.331119	-63.471415	-1.461746
35137		0.849230	-0.046261	-0.524801	-0.035384	-5.320839	-63.460580	-1.480220
35138		0.849281	-0.046228	-0.524720	-0.035408	-5.309552	-63.449826	-1.490838
35139		0.849337	-0.046189	-0.524633	-0.035391	-5.302722	-63.437938	-1.493258
35140		0.849384	-0.046183	-0.524555	-0.035446	-5.293176	-63.427767	-1.506999
35141		0.849438	-0.046219	-0.524459	-0.035524	-5.289951	-63.415419	-1.519874
35142		0.849500	-0.046225	-0.524356	-0.035552	-5.286568	-63.401680	-1.526370
35143		0.849544	-0.046218	-0.524283	-0.035588	-5.279541	-63.392045	-1.535820
35144		0.849584	-0.046208	-0.524218	-0.035594	-5.276066	-63.383304	-1.539189
35145		0.849618	-0.046226	-0.524159	-0.035647	-5.272368	-63.375760	-1.548935
35146		0.849656	-0.046204	-0.524099	-0.035651	-5.266615	-63.367666	-1.553260
35147		0.849698	-0.046181	-0.524034	-0.035623	-5.264841	-63.358782	-1.550928
35148		0.849750	-0.046148	-0.523953	-0.035618	-5.257646	-63.347702	-1.555115
35149		0.849808	-0.046091	-0.523868	-0.035547	-5.253927	-63.335808	-1.548290
35150		0.849856	-0.046039	-0.523795	-0.035552	-5.241316	-63.325855	-1.557078
35151		0.849908	-0.046010	-0.523713	-0.035541	-5.235864	-63.314793	-1.559450
35152		0.849956	-0.045967	-0.523640	-0.035544	-5.225486	-63.304787	-1.566509
35153		0.850005	-0.045929	-0.523563	-0.035543	-5.216808	-63.294471	-1.572144
35154		0.850060	-0.045909	-0.523477	-0.035541	-5.211937	-63.282735	-1.575331
35155		0.850103	-0.045891	-0.523406	-0.035558	-5.205294	-63.273309	-1.582097
35156		0.850133	-0.045808	-0.523370	-0.035488	-5.196162	-63.267832	-1.578489
35157		0.850183	-0.045864	-0.523283	-0.035506	-5.205326	-63.256409	-1.575666
35158		0.850252	-0.045931	-0.523161	-0.035555	-5.212449	-63.240435	-1.578479
35159		0.850255	-0.045902	-0.523160	-0.035544	-5.207435	-63.240172	-1.580078
35160		0.850218	-0.045829	-0.523230	-0.035490	-5.199362	-63.249142	-1.577435
35161		0.850142	-0.045930	-0.523341	-0.035529	-5.216969	-63.264533	-1.571299
35162		0.850038	-0.045986	-0.523506	-0.035527	-5.230879	-63.286719	-1.561561
35163		0.849937	-0.045963	-0.523678	-0.035442	-5.238531	-63.309349	-1.544613
35164		0.849872	-0.045970	-0.523786	-0.035377	-5.249798	-63.323504	-1.528295
35165		0.849812	-0.045912	-0.523896	-0.035298	-5.248608	-63.337602	-1.517863
35166		0.849745	-0.045844	-0.524015	-0.035212	-5.246043	-63.353039	-1.507373
35167		0.849679	-0.045753	-0.524134	-0.035135	-5.237629	-63.368473	-1.501580
35168		0.849642	-0.045674	-0.524207	-0.035065	-5.230455	-63.377598	-1.496215
35169		0.849624	-0.045566	-0.524253	-0.034942	-5.223877	-63.382950	-1.483477
35170		0.849632	-0.045531	-0.524249	-0.034867	-5.226218	-63.381832	-1.471863
35171		0.849655	-0.045497	-0.524221	-0.034773	-5.230998	-63.377376	-1.456502
35172		0.849693	-0.045469	-0.524167	-0.034679	-5.237150	-63.369534	-1.440246
35173		0.849729	-0.045453	-0.524116	-0.034603	-5.243479	-63.362197	-1.426403
35174		0.849725	-0.045441	-0.524128	-0.034539	-5.249556	-63.363412	-1.413957
35175		0.849721	-0.045448	-0.524136	-0.034491	-5.257552	-63.364213	-1.402549
35176		0.849691	-0.045454	-0.524187	-0.034452	-5.264391	-63.370852	-1.392815
35177		0.849648	-0.045504	-0.524252	-0.034469	-5.273694	-63.379776	-1.389005
35178		0.849626	-0.045562	-0.524280	-0.034506	-5.281699	-63.383857	-1.388906
35179		0.849617	-0.045659	-0.524280	-0.034587	-5.291999	-63.384465	-1.393415
35180		0.849612	-0.045734	-0.524278	-0.034632	-5.302181	-63.384693	-1.393221
35181		0.849624	-0.045799	-0.524249	-0.034692	-5.308004	-63.381245	-1.397880
35182		0.849641	-0.045860	-0.524214	-0.034733	-5.315562	-63.376912	-1.398861
35183		0.849683	-0.045910	-0.524139	-0.034771	-5.320738	-63.367078	-1.401271
35184		0.849726	-0.045960	-0.524063	-0.034803	-5.326663	-63.357152	-1.402244
35185		0.849763	-0.046008	-0.523995	-0.034854	-5.329696	-63.348361	-1.407648
35186		0.849794	-0.046021	-0.523943	-0.034862	-5.330874	-63.341526	-1.408259
35187		0.849790	-0.045902	-0.523964	-0.034802	-5.313114	-63.343737	-1.411058
35188		0.849790	-0.045845	-0.523970	-0.034794	-5.302016	-63.344384	-1.416760
35189		0.849804	-0.045928	-0.523939	-0.034809	-5.317798	-63.340498	-1.409164
35190		0.849808	-0.045966	-0.523927	-0.034839	-5.321960	-63.339039	-1.410767
35191		0.849774	-0.046058	-0.523971	-0.034889	-5.335529	-63.345441	-1.408860
35192		0.849778	-0.046078	-0.523964	-0.034871	-5.342287	-63.344477	-1.402370
35193		0.849769	-0.046115	-0.523977	-0.034847	-5.353682	-63.346091	-1.392032
35194		0.849748	-0.046131	-0.524011	-0.034815	-5.361656	-63.350502	-1.382618
35195		0.849721	-0.046140	-0.524056	-0.034781	-5.368717	-63.356422	-1.373427
35196		0.849705	-0.046175	-0.524082	-0.034739	-5.382122	-63.359694	-1.359397
35197		0.849694	-0.046206	-0.524098	-0.034728	-5.390413	-63.361800	-1.352676
35198		0.849667	-0.046206	-0.524145	-0.034697	-5.395136	-63.367888	-1.345382
35199		0.849651	-0.046189	-0.524175	-0.034641	-5.399228	-63.371525	-1.335044
35200		0.849628	-0.046192	-0.524214	-0.034605	-5.404944	-63.376581	-1.326566
35201		0.849601	-0.046190	-0.524261	-0.034558	-5.411187	-63.382648	-1.316150
35202		0.849578	-0.046193	-0.524300	-0.034523	-5.416911	-63.387702	-1.307665
35203		0.849568	-0.046152	-0.524325	-0.034452	-5.417742	-63.390513	-1.297463
35204		0.849566	-0.046153	-0.524332	-0.034391	-5.426130	-63.391060	-1.284034
35205		0.849571	-0.046091	-0.524336	-0.034300	-5.424915	-63.390914	-1.272540
35206		0.849596	-0.046040	-0.524306	-0.034225	-5.423637	-63.386248	-1.263294
35207		0.849617	-0.045958	-0.524286	-0.034101	-5.422223	-63.382663	-1.247666
35208		0.849647	-0.045909	-0.524248	-0.034021	-5.421932	-63.376964	-1.237242
35209		0.849679	-0.045891	-0.524199	-0.033979	-5.423241	-63.370155	-1.231016
35210		0.849706	-0.045838	-0.524166	-0.033893	-5.422896	-63.365049	-1.219828
35211		0.849729	-0.045843	-0.524131	-0.033847	-5.429670	-63.360011	-1.209657
35212		0.849761	-0.045766	-0.524091	-0.033764	-5.423665	-63.354033	-1.202434
35213		0.849783	-0.045682	-0.524071	-0.033627	-5.423566	-63.350398	-1.184167
35214		0.849824	-0.045638	-0.524017	-0.033508	-5.429263	-63.342292	-1.165038
35215		0.849845	-0.045605	-0.523989	-0.033458	-5.428536	-63.338216	-1.158874
35216		0.849879	-0.045556	-0.523942	-0.033392	-5.426152	-63.331368	-1.151690
35217		0.849912	-0.045605	-0.523883	-0.033398	-5.435586	-63.323573	-1.147016
35218		0.849946	-0.045550	-0.523838	-0.033316	-5.434075	-63.316881	-1.137130
35219		0.849973	-0.045544	-0.523798	-0.033262	-5.439720	-63.311179	-1.126612
35220		0.850000	-0.045477	-0.523767	-0.033162	-5.438045	-63.306271	-1.114432
35221		0.850037	-0.045427	-0.523718	-0.033064	-5.439694	-63.298894	-1.100467
35222		0.850083	-0.045327	-0.523660	-0.032941	-5.433976	-63.290225	-1.087731
35223		0.850129	-0.045207	-0.523606	-0.032784	-5.428126	-63.281766	-1.070548
35224		0.850186	-0.045086	-0.523533	-0.032630	-5.421755	-63.270852	-1.054241
35225		0.850262	-0.044965	-0.523431	-0.032462	-5.416739	-63.255877	-1.035321
35226		0.850345	-0.044842	-0.523316	-0.032297	-5.410914	-63.239298	-1.017334
35227		0.850435	-0.044719	-0.523189	-0.032147	-5.402875	-63.221047	-1.002829
35228		0.850516	-0.044607	-0.523076	-0.031990	-5.398342	-63.204839	-0.985067
35229		0.850606	-0.044537	-0.522947	-0.031828	-5.403374	-63.186349	-0.960979
35230		0.850684	-0.044441	-0.522835	-0.031694	-5.399254	-63.170360	-0.946150
35231		0.850767	-0.044357	-0.522717	-0.031542	-5.399985	-63.153453	-0.925879
35232		0.850843	-0.044289	-0.522607	-0.031410	-5.401542	-63.137728	-0.907892
35233		0.850921	-0.044233	-0.522492	-0.031298	-5.403330	-63.121507	-0.892337
35234		0.851011	-0.044160	-0.522358	-0.031174	-5.402543	-63.102624	-0.876952
35235		0.851091	-0.044082	-0.522242	-0.031047	-5.401204	-63.086144	-0.861322
35236		0.851180	-0.044043	-0.522107	-0.030941	-5.405213	-63.067370	-0.845491
35237		0.851259	-0.043994	-0.521987	-0.030848	-5.405894	-63.050554	-0.833211
35238		0.851324	-0.043945	-0.521890	-0.030765	-5.405041	-63.036959	-0.823192
35239		0.851391	-0.043856	-0.521796	-0.030636	-5.402017	-63.023480	-0.808212
35240		0.851456	-0.043821	-0.521697	-0.030567	-5.402492	-63.009672	-0.799198
35241		0.851526	-0.043702	-0.521604	-0.030387	-5.399476	-62.995907	-0.777483
35242		0.851586	-0.043673	-0.521512	-0.030320	-5.401165	-62.983076	-0.767943
35243		0.851642	-0.043657	-0.521426	-0.030248	-5.406349	-62.971062	-0.755546
35244		0.851693	-0.043618	-0.521350	-0.030173	-5.406958	-62.960454	-0.745637
35245		0.851724	-0.043547	-0.521312	-0.030049	-5.407605	-62.954514	-0.728757
35246		0.851763	-0.043509	-0.521257	-0.029975	-5.408408	-62.946517	-0.718714
35247		0.851800	-0.043542	-0.521196	-0.029928	-5.420999	-62.938141	-0.705050
35248		0.851831	-0.043523	-0.521151	-0.029846	-5.427328	-62.931600	-0.690359
35249		0.851868	-0.043526	-0.521095	-0.029784	-5.435446	-62.923580	-0.677375
