// General information: 
//  MT Manager version: 2022.2.0 
//  XDA version: 2022.2.0 build 7381 rev 124627 built on 2023-07-19
// Device information: 
//  DeviceId: 10B414FE
//  ProductCode: MTW2-3A7G6
//  Firmware Version: 4.14.0
//  Hardware Version: 3.0.0
// Device settings: 
//  Filter Profile: human(46.1)
//  Option Flags: Orientation Smoother Disabled, Position/Velocity Smoother Disabled, Continuous Zero Rotation Update Disabled, AHS Disabled, ICC Disabled
// Coordinate system: ENU
PacketCounter	SampleTimeFine	Quat_q0	Quat_q1	Quat_q2	Quat_q3	Roll	Pitch	Yaw
34038		0.561741	0.431603	-0.460105	0.535228	-2.139890	-78.218122	88.970589
34039		0.561820	0.431545	-0.460102	0.535195	-2.128366	-78.211960	88.949376
34040		0.561909	0.431461	-0.460126	0.535148	-2.127174	-78.206100	88.934209
34041		0.562003	0.431381	-0.460128	0.535112	-2.119808	-78.198292	88.914601
34042		0.562087	0.431333	-0.460075	0.535109	-2.095970	-78.187896	88.885972
34043		0.562047	0.431407	-0.459911	0.535231	-2.062990	-78.177975	88.876015
34044		0.562030	0.431446	-0.459789	0.535324	-2.040733	-78.168879	88.869329
34045		0.561857	0.431615	-0.459576	0.535550	-2.022754	-78.163254	88.896363
34046		0.561821	0.431649	-0.459455	0.535665	-2.012473	-78.153718	88.903679
34047		0.561800	0.431667	-0.459369	0.535746	-2.005482	-78.146399	88.908508
34048		0.561850	0.431610	-0.459354	0.535753	-2.007566	-78.138920	88.905646
34049		0.561891	0.431569	-0.459330	0.535763	-2.004667	-78.132202	88.900058
34050		0.562011	0.431438	-0.459365	0.535713	-2.013264	-78.122634	88.889218
34051		0.562166	0.431282	-0.459417	0.535632	-2.017344	-78.112414	88.867692
34052		0.562274	0.431185	-0.459433	0.535583	-2.013036	-78.104383	88.847899
34053		0.562230	0.431175	-0.459340	0.535717	-2.031241	-78.093186	88.881022
34054		0.562240	0.431177	-0.459239	0.535792	-2.015532	-78.082638	88.874956
34055		0.562084	0.431304	-0.459059	0.536006	-2.013218	-78.076241	88.911683
34056		0.562086	0.431306	-0.459016	0.536040	-2.007082	-78.071772	88.909970
34057		0.561992	0.431348	-0.458913	0.536193	-2.023720	-78.064883	88.949172
34058		0.562074	0.431277	-0.458910	0.536166	-2.017495	-78.057469	88.932756
34059		0.562152	0.431191	-0.458932	0.536136	-2.023694	-78.051012	88.926411
34060		0.562255	0.431106	-0.458964	0.536068	-2.016670	-78.045947	88.902885
34061		0.562117	0.431202	-0.458834	0.536247	-2.026196	-78.041541	88.943622
34062		0.562127	0.431233	-0.458779	0.536259	-2.000227	-78.038934	88.922774
34063		0.562108	0.431272	-0.458694	0.536320	-1.981948	-78.033948	88.916154
34064		0.562118	0.431285	-0.458632	0.536352	-1.964562	-78.028737	88.904371
34065		0.562183	0.431251	-0.458638	0.536306	-1.949549	-78.026024	88.880626
34066		0.562229	0.431216	-0.458672	0.536257	-1.946592	-78.026136	88.868219
34067		0.562306	0.431143	-0.458774	0.536148	-1.954480	-78.029676	88.855268
34068		0.562348	0.431096	-0.458856	0.536071	-1.964321	-78.033613	88.850893
34069		0.562252	0.431141	-0.458849	0.536141	-1.989425	-78.037315	88.888559
34070		0.562269	0.431121	-0.458918	0.536081	-1.997745	-78.042588	88.887354
34071		0.562303	0.431088	-0.458981	0.536017	-2.002709	-78.046057	88.881118
34072		0.562318	0.431085	-0.459002	0.535986	-1.999130	-78.047989	88.873479
34073		0.562338	0.431074	-0.459009	0.535968	-1.995050	-78.047729	88.866218
34074		0.562345	0.431066	-0.459016	0.535961	-1.996192	-78.047658	88.865763
34075		0.562327	0.431104	-0.458993	0.535969	-1.983750	-78.049057	88.858272
34076		0.562350	0.431062	-0.459060	0.535922	-2.000176	-78.051959	88.864368
34077		0.562319	0.431080	-0.459117	0.535891	-2.012483	-78.059822	88.874438
34078		0.562361	0.431026	-0.459237	0.535787	-2.029507	-78.067213	88.873075
34079		0.562328	0.431032	-0.459272	0.535787	-2.046783	-78.071382	88.890578
34080		0.562340	0.431013	-0.459317	0.535751	-2.054157	-78.074283	88.891474
34081		0.562330	0.431021	-0.459316	0.535756	-2.055176	-78.074891	88.893951
34082		0.562317	0.431036	-0.459315	0.535759	-2.054332	-78.076389	88.894918
34083		0.562331	0.431020	-0.459338	0.535738	-2.057646	-78.077148	88.893940
34084		0.562404	0.430932	-0.459398	0.535680	-2.070516	-78.074636	88.890746
34085		0.562445	0.430877	-0.459418	0.535664	-2.078872	-78.071114	88.891509
34086		0.562554	0.430807	-0.459461	0.535569	-2.062870	-78.068875	88.857288
34087		0.562666	0.430700	-0.459483	0.535518	-2.061918	-78.060467	88.839405
34088		0.562753	0.430617	-0.459513	0.535467	-2.061562	-78.055305	88.824598
34089		0.562779	0.430597	-0.459510	0.535459	-2.058515	-78.052917	88.818591
34090		0.562824	0.430579	-0.459496	0.535439	-2.043694	-78.049691	88.799822
34091		0.562846	0.430596	-0.459422	0.535466	-2.016815	-78.043638	88.778397
34092		0.562909	0.430563	-0.459394	0.535449	-1.998324	-78.037529	88.755013
34093		0.562939	0.430566	-0.459381	0.535426	-1.980804	-78.036587	88.735358
34094		0.563000	0.430530	-0.459416	0.535361	-1.971323	-78.036785	88.714461
34095		0.563083	0.430490	-0.459455	0.535273	-1.953133	-78.037104	88.681887
34096		0.563140	0.430462	-0.459422	0.535263	-1.935144	-78.030759	88.660292
34097		0.563157	0.430459	-0.459387	0.535278	-1.924454	-78.026860	88.651335
34098		0.563191	0.430434	-0.459427	0.535228	-1.923843	-78.028652	88.642134
34099		0.563137	0.430484	-0.459412	0.535258	-1.924760	-78.032000	88.651768
34100		0.563170	0.430477	-0.459458	0.535188	-1.915582	-78.036387	88.633528
34101		0.563149	0.430513	-0.459442	0.535196	-1.907035	-78.038323	88.629718
34102		0.563211	0.430469	-0.459498	0.535119	-1.903261	-78.039829	88.612100
34103		0.563165	0.430547	-0.459441	0.535153	-1.882013	-78.041727	88.603220
34104		0.563224	0.430539	-0.459480	0.535064	-1.859645	-78.045336	88.569676
34105		0.563225	0.430583	-0.459483	0.535025	-1.837827	-78.050176	88.547957
34106		0.563270	0.430593	-0.459502	0.534953	-1.811560	-78.053436	88.514367
34107		0.563152	0.430721	-0.459393	0.535067	-1.796539	-78.054791	88.526461
34108		0.563157	0.430715	-0.459411	0.535051	-1.798657	-78.056154	88.525880
34109		0.563111	0.430742	-0.459411	0.535078	-1.808776	-78.058743	88.541865
34110		0.563165	0.430701	-0.459419	0.535048	-1.803165	-78.055507	88.528515
34111		0.563140	0.430696	-0.459428	0.535070	-1.818275	-78.055849	88.545563
34112		0.563208	0.430622	-0.459515	0.534983	-1.829294	-78.057729	88.538365
34113		0.563276	0.430532	-0.459572	0.534936	-1.846045	-78.054621	88.539991
34114		0.563338	0.430486	-0.459622	0.534864	-1.841851	-78.055408	88.522582
34115		0.563374	0.430461	-0.459654	0.534819	-1.839175	-78.056333	88.511953
34116		0.563423	0.430440	-0.459651	0.534786	-1.824516	-78.054033	88.491540
34117		0.563359	0.430489	-0.459630	0.534833	-1.830563	-78.056572	88.507960
34118		0.563365	0.430474	-0.459675	0.534799	-1.838880	-78.059965	88.510575
34119		0.563257	0.430587	-0.459621	0.534869	-1.832258	-78.065577	88.523816
34120		0.563231	0.430604	-0.459654	0.534854	-1.839898	-78.070799	88.531139
34121		0.563214	0.430595	-0.459714	0.534829	-1.859008	-78.076153	88.545912
34122		0.563267	0.430504	-0.459787	0.534784	-1.884840	-78.074642	88.556610
34123		0.563371	0.430406	-0.459881	0.534672	-1.889670	-78.074893	88.537950
34124		0.563384	0.430360	-0.459934	0.534649	-1.910963	-78.075808	88.551464
34125		0.563307	0.430364	-0.459951	0.534712	-1.949605	-78.077768	88.597426
34126		0.563326	0.430303	-0.459970	0.534725	-1.972455	-78.073571	88.615309
34127		0.563417	0.430150	-0.460064	0.534671	-2.011658	-78.067988	88.631922
34128		0.563440	0.430081	-0.460140	0.534638	-2.042102	-78.068893	88.650754
34129		0.563491	0.430045	-0.460222	0.534542	-2.042241	-78.074125	88.635646
34130		0.563516	0.430001	-0.460319	0.534467	-2.060274	-78.080109	88.639827
34131		0.563397	0.430084	-0.460289	0.534552	-2.076553	-78.085038	88.674366
34132		0.563419	0.430084	-0.460324	0.534498	-2.068354	-78.088973	88.659761
34133		0.563434	0.430124	-0.460340	0.534437	-2.042253	-78.094834	88.630692
34134		0.563416	0.430186	-0.460302	0.534439	-2.017120	-78.097146	88.612560
34135		0.563355	0.430281	-0.460187	0.534524	-1.988983	-78.094660	88.604870
34136		0.563420	0.430250	-0.460207	0.534464	-1.973387	-78.093766	88.579118
34137		0.563420	0.430288	-0.460177	0.534459	-1.951719	-78.094540	88.561137
34138		0.563513	0.430257	-0.460231	0.534341	-1.925235	-78.097371	88.517596
34139		0.563535	0.430243	-0.460245	0.534316	-1.922222	-78.097485	88.510195
34140		0.563602	0.430220	-0.460280	0.534234	-1.902813	-78.099062	88.478894
34141		0.563515	0.430318	-0.460251	0.534271	-1.895166	-78.105913	88.485708
34142		0.563501	0.430353	-0.460263	0.534249	-1.886249	-78.110731	88.477663
34143		0.563457	0.430383	-0.460291	0.534247	-1.896079	-78.116715	88.490129
34144		0.563476	0.430369	-0.460350	0.534187	-1.898805	-78.121617	88.484050
34145		0.563544	0.430338	-0.460369	0.534122	-1.881249	-78.120808	88.455945
34146		0.563661	0.430289	-0.460415	0.533999	-1.850593	-78.120966	88.406026
34147		0.563778	0.430249	-0.460452	0.533876	-1.814832	-78.121176	88.351932
34148		0.563874	0.430239	-0.460437	0.533796	-1.769809	-78.118833	88.297086
34149		0.563909	0.430315	-0.460332	0.533788	-1.703283	-78.115619	88.238482
34150		0.563934	0.430414	-0.460220	0.533779	-1.630664	-78.113899	88.176096
34151		0.564021	0.430393	-0.460229	0.533696	-1.597958	-78.113029	88.131851
34152		0.564043	0.430400	-0.460226	0.533670	-1.582641	-78.113481	88.114360
34153		0.564087	0.430342	-0.460260	0.533641	-1.592759	-78.111259	88.114971
34154		0.564233	0.430221	-0.460361	0.533496	-1.588712	-78.109971	88.081317
34155		0.564299	0.430140	-0.460415	0.533446	-1.601315	-78.107492	88.079431
34156		0.564411	0.430048	-0.460457	0.533365	-1.593993	-78.102817	88.053256
34157		0.564429	0.430067	-0.460333	0.533438	-1.564405	-78.091516	88.035056
34158		0.564404	0.430172	-0.460191	0.533501	-1.510999	-78.087187	88.000927
34159		0.564341	0.430284	-0.460018	0.533628	-1.471504	-78.079966	87.988746
34160		0.564307	0.430367	-0.459862	0.533730	-1.432246	-78.071777	87.971130
34161		0.564298	0.430426	-0.459715	0.533819	-1.394205	-78.062045	87.950547
34162		0.564368	0.430412	-0.459630	0.533830	-1.358141	-78.051642	87.915101
34163		0.564495	0.430380	-0.459572	0.533772	-1.305108	-78.042424	87.852926
34164		0.564636	0.430308	-0.459531	0.533715	-1.266305	-78.031027	87.800944
34165		0.564687	0.430307	-0.459448	0.533734	-1.233889	-78.022083	87.771278
34166		0.564764	0.430305	-0.459357	0.533732	-1.187671	-78.012307	87.725664
34167		0.564797	0.430412	-0.459175	0.533768	-1.101138	-78.003855	87.655936
34168		0.564801	0.430479	-0.459042	0.533824	-1.053970	-77.996576	87.623277
34169		0.564681	0.430623	-0.458853	0.533996	-1.025103	-77.990842	87.630392
34170		0.564698	0.430648	-0.458773	0.534028	-0.997391	-77.984805	87.609634
34171		0.564814	0.430576	-0.458775	0.533961	-0.975016	-77.977917	87.572324
34172		0.564889	0.430528	-0.458779	0.533918	-0.962152	-77.973486	87.549721
34173		0.565058	0.430407	-0.458862	0.533765	-0.945486	-77.970213	87.502649
34174		0.565165	0.430338	-0.458916	0.533660	-0.931040	-77.969258	87.468991
34175		0.565240	0.430315	-0.458924	0.533593	-0.905753	-77.967794	87.433661
34176		0.565317	0.430274	-0.458931	0.533539	-0.888120	-77.964391	87.405695
34177		0.565347	0.430267	-0.458936	0.533508	-0.877251	-77.964323	87.390634
34178		0.565357	0.430283	-0.458934	0.533487	-0.863903	-77.965710	87.376539
34179		0.565496	0.430208	-0.458980	0.533359	-0.835394	-77.963324	87.325662
34180		0.565618	0.430119	-0.459024	0.533264	-0.822860	-77.959131	87.292980
34181		0.565840	0.429963	-0.459129	0.533064	-0.798770	-77.954688	87.229433
34182		0.566008	0.429843	-0.459199	0.532923	-0.781421	-77.950120	87.183397
34183		0.566143	0.429802	-0.459210	0.532802	-0.734523	-77.947426	87.118706
34184		0.566232	0.429778	-0.459189	0.532745	-0.700244	-77.942809	87.075811
34185		0.566392	0.429678	-0.459226	0.532624	-0.673930	-77.936798	87.025382
34186		0.566404	0.429723	-0.459129	0.532659	-0.637034	-77.930916	86.997969
34187		0.566343	0.429814	-0.459003	0.532758	-0.611072	-77.926648	86.993777
34188		0.566407	0.429765	-0.459016	0.532719	-0.604870	-77.923078	86.977947
34189		0.566591	0.429605	-0.459101	0.532579	-0.600531	-77.916208	86.940809
34190		0.566729	0.429494	-0.459123	0.532503	-0.589445	-77.907334	86.909803
34191		0.566831	0.429381	-0.459103	0.532503	-0.594204	-77.893823	86.903147
34192		0.567005	0.429198	-0.459129	0.532442	-0.601306	-77.878223	86.884644
34193		0.567113	0.429055	-0.459142	0.532432	-0.620885	-77.865073	86.888336
34194		0.567171	0.429000	-0.459128	0.532427	-0.618977	-77.858110	86.880435
34195		0.567176	0.429012	-0.459048	0.532480	-0.604009	-77.850747	86.873543
34196		0.567152	0.429071	-0.458909	0.532578	-0.574646	-77.841791	86.862566
34197		0.567185	0.429055	-0.458887	0.532575	-0.564341	-77.837815	86.850552
34198		0.567159	0.429075	-0.458809	0.532653	-0.561317	-77.831521	86.859170
34199		0.567110	0.429155	-0.458693	0.532742	-0.536425	-77.826999	86.853520
34200		0.567096	0.429184	-0.458615	0.532801	-0.522649	-77.821549	86.850091
34201		0.567081	0.429163	-0.458566	0.532875	-0.536352	-77.814200	86.870444
34202		0.567050	0.429185	-0.458471	0.532972	-0.533118	-77.806253	86.881317
34203		0.566807	0.429396	-0.458206	0.533288	-0.526206	-77.799005	86.934071
34204		0.566777	0.429493	-0.458008	0.533412	-0.476928	-77.787549	86.910663
34205		0.566725	0.429603	-0.457741	0.533608	-0.425836	-77.770107	86.895607
34206		0.566691	0.429718	-0.457507	0.533752	-0.366403	-77.756671	86.866368
34207		0.566709	0.429818	-0.457238	0.533882	-0.285610	-77.738041	86.813299
34208		0.566778	0.429844	-0.457061	0.533940	-0.224824	-77.721709	86.763545
34209		0.566897	0.429742	-0.457009	0.533941	-0.213220	-77.705814	86.742240
34210		0.567021	0.429611	-0.456991	0.533929	-0.216190	-77.690755	86.730728
34211		0.567108	0.429525	-0.456938	0.533952	-0.212633	-77.676364	86.721521
34212		0.567154	0.429483	-0.456869	0.533995	-0.205330	-77.664739	86.715618
34213		0.567140	0.429473	-0.456776	0.534098	-0.209806	-77.653728	86.731588
34214		0.567258	0.429373	-0.456739	0.534085	-0.199292	-77.639647	86.709855
34215		0.567470	0.429266	-0.456739	0.533946	-0.149240	-77.628992	86.633312
34216		0.567601	0.429191	-0.456696	0.533904	-0.118831	-77.616846	86.591060
34217		0.567856	0.429002	-0.456721	0.533763	-0.090316	-77.600533	86.527300
34218		0.567959	0.428965	-0.456663	0.533733	-0.053980	-77.590532	86.484480
34219		0.568048	0.428969	-0.456613	0.533677	-0.004400	-77.585625	86.429703
34220		0.568128	0.428986	-0.456569	0.533616	0.046139	-77.582662	86.374517
34221		0.568248	0.428910	-0.456618	0.533507	0.063042	-77.580225	86.337136
34222		0.568286	0.428932	-0.456611	0.533455	0.093142	-77.581685	86.303571
34223		0.568222	0.429028	-0.456516	0.533528	0.116740	-77.581133	86.298906
34224		0.568296	0.429024	-0.456499	0.533467	0.151819	-77.578890	86.256747
34225		0.568324	0.429075	-0.456437	0.533449	0.195985	-77.577354	86.216382
34226		0.568402	0.429101	-0.456379	0.533394	0.251354	-77.573716	86.158238
34227		0.568479	0.429115	-0.456348	0.533328	0.298175	-77.571758	86.105809
34228		0.568544	0.429152	-0.456309	0.533263	0.351028	-77.571237	86.049825
34229		0.568565	0.429206	-0.456233	0.533261	0.393884	-77.568483	86.013129
34230		0.568641	0.429279	-0.456179	0.533168	0.471319	-77.569916	85.933233
34231		0.568631	0.429401	-0.456117	0.533134	0.532035	-77.575444	85.881750
34232		0.568662	0.429460	-0.456051	0.533109	0.581762	-77.574291	85.836037
34233		0.568605	0.429588	-0.455903	0.533192	0.629355	-77.571267	85.812402
34234		0.568628	0.429644	-0.455829	0.533187	0.673776	-77.568876	85.773883
34235		0.568572	0.429795	-0.455675	0.533256	0.733363	-77.567412	85.739027
34236		0.568600	0.429822	-0.455639	0.533235	0.763371	-77.566213	85.709914
34237		0.568535	0.429903	-0.455588	0.533284	0.775626	-77.568806	85.711792
34238		0.568549	0.429898	-0.455602	0.533260	0.779271	-77.569946	85.704870
34239		0.568440	0.430030	-0.455485	0.533371	0.800535	-77.570610	85.710643
34240		0.568419	0.430056	-0.455440	0.533410	0.806793	-77.568388	85.711875
34241		0.568485	0.430018	-0.455473	0.533342	0.817619	-77.568067	85.689365
34242		0.568496	0.430006	-0.455478	0.533335	0.816755	-77.567487	85.688130
34243		0.568500	0.429963	-0.455521	0.533329	0.793829	-77.567682	85.705551
34244		0.568526	0.429951	-0.455540	0.533295	0.798706	-77.568536	85.695411
34245		0.568615	0.429860	-0.455580	0.533239	0.793641	-77.563640	85.684550
34246		0.568542	0.429948	-0.455496	0.533318	0.808512	-77.563493	85.688374
34247		0.568308	0.430187	-0.455278	0.533561	0.830218	-77.564242	85.720469
34248		0.568180	0.430297	-0.455204	0.533671	0.828861	-77.567514	85.746156
34249		0.568122	0.430327	-0.455213	0.533701	0.814845	-77.571441	85.766495
34250		0.568087	0.430297	-0.455264	0.533719	0.779309	-77.573975	85.800442
34251		0.568052	0.430273	-0.455306	0.533740	0.747039	-77.576209	85.832137
34252		0.568088	0.430161	-0.455433	0.533683	0.699141	-77.578658	85.860921
34253		0.568148	0.430003	-0.455613	0.533594	0.635601	-77.582050	85.896342
34254		0.568150	0.429870	-0.455734	0.533596	0.561083	-77.581648	85.956228
34255		0.568066	0.429828	-0.455811	0.533653	0.493458	-77.585834	86.025173
34256		0.567943	0.429842	-0.455839	0.533748	0.438609	-77.590422	86.091785
34257		0.567767	0.429917	-0.455840	0.533874	0.390118	-77.598157	86.162008
34258		0.567609	0.430000	-0.455840	0.533976	0.354483	-77.606546	86.217443
34259		0.567402	0.430142	-0.455765	0.534145	0.330683	-77.612821	86.275464
34260		0.567332	0.430155	-0.455813	0.534168	0.299598	-77.619371	86.309865
34261		0.567371	0.430035	-0.455955	0.534102	0.247746	-77.622458	86.340603
34262		0.567397	0.429923	-0.456097	0.534043	0.193092	-77.626453	86.375682
34263		0.567387	0.429819	-0.456220	0.534033	0.126710	-77.629209	86.429010
34264		0.567355	0.429745	-0.456327	0.534035	0.066255	-77.633144	86.481012
34265		0.567170	0.429784	-0.456330	0.534197	-0.005050	-77.637433	86.574408
34266		0.567055	0.429809	-0.456334	0.534296	-0.049296	-77.640365	86.632181
34267		0.567025	0.429768	-0.456386	0.534316	-0.088354	-77.641804	86.668810
34268		0.566975	0.429784	-0.456415	0.534332	-0.107324	-77.646498	86.690858
34269		0.566990	0.429776	-0.456427	0.534311	-0.104637	-77.647024	86.684913
34270		0.566952	0.429834	-0.456396	0.534332	-0.092305	-77.649558	86.681125
34271		0.566847	0.429982	-0.456257	0.534444	-0.058869	-77.649498	86.676783
34272		0.566818	0.430047	-0.456171	0.534495	-0.033720	-77.646927	86.664865
34273		0.566798	0.430100	-0.456099	0.534535	-0.011152	-77.644542	86.653019
34274		0.566825	0.430111	-0.456068	0.534525	0.009682	-77.642332	86.632437
34275		0.566912	0.430059	-0.456106	0.534441	0.023553	-77.641196	86.603552
34276		0.566894	0.430074	-0.456057	0.534489	0.025875	-77.637463	86.608639
34277		0.566860	0.430103	-0.455996	0.534555	0.028487	-77.633782	86.617045
34278		0.566843	0.430109	-0.455974	0.534586	0.025222	-77.632105	86.624676
34279		0.566834	0.430071	-0.455971	0.534629	0.001825	-77.627974	86.648973
34280		0.566857	0.430025	-0.456008	0.534609	-0.012415	-77.627344	86.656011
34281		0.566843	0.430016	-0.456007	0.534633	-0.023959	-77.626297	86.669228
34282		0.566901	0.429947	-0.456059	0.534583	-0.034355	-77.624838	86.666457
34283		0.566966	0.429883	-0.456051	0.534573	-0.033775	-77.617513	86.658328
34284		0.567070	0.429788	-0.456077	0.534516	-0.032480	-77.610747	86.640715
34285		0.567119	0.429757	-0.456036	0.534524	-0.020899	-77.603272	86.627356
34286		0.567164	0.429753	-0.455986	0.534522	0.003238	-77.597431	86.603130
34287		0.567226	0.429730	-0.455931	0.534522	0.025986	-77.589292	86.578606
34288		0.567268	0.429702	-0.455883	0.534541	0.035954	-77.581315	86.568456
34289		0.567299	0.429716	-0.455783	0.534581	0.066461	-77.572057	86.545041
34290		0.567368	0.429679	-0.455742	0.534574	0.083996	-77.563828	86.523340
34291		0.567443	0.429663	-0.455674	0.534565	0.117930	-77.554922	86.487475
34292		0.567537	0.429623	-0.455613	0.534549	0.148533	-77.544378	86.451765
34293		0.567513	0.429685	-0.455457	0.534658	0.179507	-77.533984	86.440941
34294		0.567590	0.429719	-0.455366	0.534626	0.240538	-77.527606	86.380846
34295		0.567669	0.429770	-0.455273	0.534580	0.311437	-77.522786	86.310992
34296		0.567691	0.429894	-0.455135	0.534575	0.394383	-77.520363	86.241575
34297		0.567734	0.430002	-0.455036	0.534527	0.476120	-77.520557	86.166567
34298		0.567743	0.430150	-0.454974	0.534452	0.558759	-77.528678	86.091212
34299		0.567854	0.430243	-0.455031	0.534209	0.655513	-77.544005	85.976211
34300		0.567842	0.430427	-0.455019	0.534084	0.742967	-77.561092	85.893538
34301		0.567795	0.430667	-0.454990	0.533965	0.843008	-77.581932	85.804917
34302		0.567724	0.430849	-0.454998	0.533887	0.900055	-77.601003	85.757594
34303		0.567664	0.431037	-0.455021	0.533778	0.964496	-77.622314	85.699899
34304		0.567553	0.431242	-0.455054	0.533705	1.011324	-77.646218	85.665246
34305		0.567452	0.431427	-0.455130	0.533597	1.050980	-77.673074	85.631553
34306		0.567365	0.431556	-0.455246	0.533487	1.066143	-77.698306	85.615841
34307		0.567278	0.431657	-0.455372	0.533389	1.066593	-77.722071	85.613461
34308		0.567215	0.431788	-0.455509	0.533233	1.093175	-77.749947	85.581282
34309		0.567094	0.431931	-0.455639	0.533135	1.098244	-77.778294	85.578323
34310		0.566923	0.432109	-0.455723	0.533101	1.099255	-77.805234	85.590699
34311		0.566735	0.432311	-0.455764	0.533102	1.107563	-77.830074	85.602673
34312		0.566520	0.432535	-0.455804	0.533114	1.113617	-77.857085	85.620418
34313		0.566255	0.432755	-0.455812	0.533211	1.094649	-77.880221	85.672495
34314		0.566103	0.432874	-0.455902	0.533199	1.074307	-77.901993	85.702651
34315		0.565946	0.432998	-0.455985	0.533194	1.054485	-77.923575	85.733727
34316		0.565835	0.433088	-0.456077	0.533160	1.039321	-77.942558	85.753213
34317		0.565743	0.433133	-0.456141	0.533166	1.011947	-77.954090	85.785185
34318		0.565606	0.433227	-0.456142	0.533235	0.991705	-77.963844	85.822659
34319		0.565484	0.433294	-0.456168	0.533287	0.964023	-77.973477	85.862762
34320		0.565316	0.433375	-0.456177	0.533392	0.920427	-77.982834	85.926306
34321		0.565263	0.433373	-0.456251	0.533386	0.887690	-77.990678	85.957348
34322		0.565177	0.433438	-0.456239	0.533434	0.879321	-77.996002	85.977918
34323		0.565083	0.433527	-0.456172	0.533519	0.883049	-77.997898	85.993587
34324		0.565077	0.433527	-0.456167	0.533530	0.880394	-77.997376	85.997462
34325		0.565112	0.433453	-0.456189	0.533535	0.857380	-77.992192	86.013192
34326		0.565097	0.433449	-0.456175	0.533565	0.849205	-77.990444	86.024467
34327		0.565096	0.433454	-0.456093	0.533632	0.857045	-77.982119	86.025537
34328		0.565075	0.433493	-0.455971	0.533727	0.875539	-77.972907	86.023024
34329		0.565095	0.433535	-0.455807	0.533812	0.919220	-77.959519	85.994901
34330		0.565067	0.433653	-0.455594	0.533927	0.982127	-77.948576	85.959296
34331		0.564949	0.433862	-0.455323	0.534114	1.050306	-77.940651	85.936318
34332		0.564986	0.433995	-0.455091	0.534164	1.155079	-77.928940	85.853322
34333		0.565031	0.434101	-0.454871	0.534218	1.248382	-77.915953	85.779280
34334		0.565114	0.434161	-0.454696	0.534230	1.333386	-77.902956	85.703671
34335		0.565126	0.434267	-0.454493	0.534304	1.408515	-77.891678	85.649885
34336		0.565203	0.434332	-0.454331	0.534308	1.491858	-77.880563	85.575471
34337		0.565099	0.434532	-0.454047	0.534496	1.564061	-77.870318	85.547983
34338		0.565162	0.434609	-0.453909	0.534484	1.644567	-77.863021	85.475470
34339		0.565234	0.434687	-0.453786	0.534449	1.729335	-77.857385	85.396124
34340		0.565322	0.434756	-0.453668	0.534400	1.817085	-77.851170	85.311203
34341		0.565352	0.434870	-0.453491	0.534426	1.903494	-77.843427	85.241274
34342		0.565411	0.434977	-0.453376	0.534374	1.996598	-77.841438	85.154611
34343		0.565472	0.435073	-0.453244	0.534343	2.085352	-77.836462	85.073653
34344		0.565543	0.435172	-0.453134	0.534281	2.179677	-77.834120	84.983781
34345		0.565583	0.435301	-0.453017	0.534233	2.274640	-77.834072	84.897927
34346		0.565615	0.435411	-0.452933	0.534179	2.354077	-77.835796	84.824695
34347		0.565594	0.435575	-0.452778	0.534201	2.439234	-77.835164	84.760329
34348		0.565600	0.435700	-0.452643	0.534207	2.516556	-77.832935	84.698026
34349		0.565557	0.435811	-0.452512	0.534273	2.561630	-77.829872	84.673190
34350		0.565576	0.435870	-0.452467	0.534242	2.605440	-77.830806	84.632465
34351		0.565693	0.435835	-0.452500	0.534119	2.642408	-77.830311	84.577780
34352		0.565737	0.435846	-0.452525	0.534043	2.668834	-77.833788	84.543656
34353		0.565743	0.435880	-0.452514	0.534017	2.690429	-77.835955	84.522761
34354		0.565778	0.435888	-0.452536	0.533955	2.711074	-77.838955	84.495716
34355		0.565776	0.435950	-0.452528	0.533914	2.743314	-77.844005	84.465331
34356		0.565752	0.436023	-0.452499	0.533904	2.772090	-77.848139	84.443263
34357		0.565837	0.435986	-0.452585	0.533771	2.789190	-77.853317	84.406477
34358		0.565776	0.436049	-0.452553	0.533811	2.794559	-77.856284	84.412400
34359		0.565730	0.436125	-0.452514	0.533831	2.814419	-77.859696	84.403053
34360		0.565691	0.436182	-0.452482	0.533853	2.827102	-77.862119	84.398963
34361		0.565585	0.436262	-0.452429	0.533945	2.819768	-77.864617	84.425439
34362		0.565620	0.436209	-0.452470	0.533916	2.806846	-77.863759	84.429187
34363		0.565662	0.436165	-0.452524	0.533863	2.800955	-77.864999	84.423986
34364		0.565683	0.436123	-0.452591	0.533817	2.785849	-77.868010	84.428965
34365		0.565623	0.436098	-0.452623	0.533874	2.740537	-77.869365	84.477689
34366		0.565593	0.436072	-0.452646	0.533907	2.710437	-77.869465	84.508588
34367		0.565459	0.436115	-0.452636	0.534022	2.667029	-77.873235	84.569430
34368		0.565414	0.436067	-0.452696	0.534059	2.615238	-77.875127	84.619689
34369		0.565431	0.435972	-0.452769	0.534056	2.569475	-77.873640	84.654703
34370		0.565468	0.435893	-0.452824	0.534035	2.542165	-77.871682	84.670874
34371		0.565506	0.435831	-0.452845	0.534028	2.527083	-77.867711	84.678654
34372		0.565485	0.435813	-0.452819	0.534086	2.508727	-77.863319	84.701931
34373		0.565474	0.435777	-0.452803	0.534142	2.485066	-77.858062	84.728309
34374		0.565407	0.435784	-0.452796	0.534212	2.455774	-77.858359	84.766250
34375		0.565313	0.435777	-0.452758	0.534350	2.407505	-77.853976	84.829750
34376		0.565289	0.435704	-0.452812	0.534389	2.353762	-77.852813	84.879753
34377		0.565191	0.435663	-0.452795	0.534541	2.284152	-77.847337	84.962395
34378		0.565258	0.435457	-0.452893	0.534554	2.203135	-77.837472	85.022761
34379		0.565404	0.435172	-0.453004	0.534538	2.118756	-77.820795	85.074907
34380		0.565527	0.434930	-0.453028	0.534584	2.051674	-77.799278	85.122215
34381		0.565594	0.434780	-0.453043	0.534623	2.005134	-77.785827	85.157599
34382		0.565641	0.434687	-0.453020	0.534669	1.981537	-77.774031	85.177037
34383		0.565618	0.434648	-0.452980	0.534758	1.952301	-77.766077	85.212725
34384		0.565596	0.434596	-0.452972	0.534831	1.914849	-77.760242	85.253141
34385		0.565563	0.434572	-0.452956	0.534899	1.887240	-77.756178	85.286146
34386		0.565543	0.434529	-0.452963	0.534950	1.854370	-77.752757	85.320208
34387		0.565488	0.434502	-0.452933	0.535054	1.815590	-77.747157	85.368203
34388		0.565507	0.434397	-0.452966	0.535091	1.768424	-77.740227	85.408512
34389		0.565394	0.434395	-0.452859	0.535303	1.718746	-77.728995	85.482982
34390		0.565428	0.434313	-0.452861	0.535333	1.693006	-77.721038	85.503625
34391		0.565487	0.434232	-0.452922	0.535284	1.676015	-77.719376	85.506104
34392		0.565466	0.434208	-0.452948	0.535303	1.651893	-77.719859	85.529759
34393		0.565344	0.434240	-0.452941	0.535413	1.608649	-77.722603	85.588565
34394		0.565286	0.434219	-0.453020	0.535423	1.564214	-77.729233	85.631228
34395		0.565137	0.434247	-0.453060	0.535524	1.502409	-77.736702	85.706748
34396		0.565129	0.434196	-0.453201	0.535455	1.462375	-77.746673	85.732221
34397		0.565101	0.434119	-0.453321	0.535445	1.400651	-77.751915	85.783620
34398		0.565106	0.434064	-0.453410	0.535410	1.368427	-77.755944	85.805303
34399		0.565241	0.433913	-0.453531	0.535287	1.348840	-77.753540	85.794313
34400		0.565291	0.433860	-0.453580	0.535236	1.342278	-77.753361	85.789164
34401		0.565289	0.433842	-0.453592	0.535242	1.331585	-77.752931	85.798584
34402		0.565325	0.433806	-0.453622	0.535208	1.328529	-77.752399	85.793800
34403		0.565438	0.433689	-0.453735	0.535087	1.316640	-77.752638	85.778941
34404		0.565465	0.433663	-0.453819	0.535008	1.310555	-77.759038	85.772568
34405		0.565543	0.433534	-0.453942	0.534926	1.273750	-77.759095	85.785679
34406		0.565594	0.433496	-0.453973	0.534876	1.277218	-77.758567	85.772366
34407		0.565614	0.433493	-0.453965	0.534865	1.286165	-77.757320	85.761882
34408		0.565649	0.433471	-0.453935	0.534871	1.294093	-77.751935	85.752807
34409		0.565595	0.433554	-0.453805	0.534972	1.319165	-77.746301	85.748935
34410		0.565604	0.433618	-0.453725	0.534977	1.362474	-77.744162	85.713693
34411		0.565621	0.433680	-0.453626	0.534993	1.409371	-77.739603	85.675933
34412		0.565653	0.433692	-0.453549	0.535014	1.436954	-77.732579	85.652830
34413		0.565765	0.433641	-0.453551	0.534935	1.465802	-77.727449	85.609958
34414		0.565797	0.433643	-0.453570	0.534884	1.481030	-77.729565	85.588959
34415		0.565788	0.433637	-0.453589	0.534883	1.472099	-77.730988	85.596901
34416		0.565815	0.433598	-0.453622	0.534858	1.463072	-77.730665	85.598788
34417		0.565867	0.433567	-0.453642	0.534811	1.471221	-77.729492	85.581968
34418		0.565876	0.433547	-0.453632	0.534826	1.465867	-77.726459	85.587107
34419		0.565862	0.433547	-0.453601	0.534868	1.461346	-77.723113	85.596608
34420		0.565867	0.433545	-0.453562	0.534897	1.465690	-77.718798	85.595802
34421		0.565768	0.433634	-0.453451	0.535024	1.470046	-77.715953	85.615934
34422		0.565771	0.433637	-0.453454	0.535016	1.472714	-77.716641	85.612681
34423		0.565755	0.433629	-0.453461	0.535033	1.460159	-77.716638	85.626295
34424		0.565697	0.433656	-0.453458	0.535075	1.446074	-77.719117	85.647877
34425		0.565693	0.433658	-0.453475	0.535063	1.444263	-77.721150	85.648387
34426		0.565637	0.433708	-0.453415	0.535133	1.445967	-77.719775	85.660287
34427		0.565646	0.433711	-0.453361	0.535167	1.455701	-77.714307	85.655229
34428		0.565626	0.433691	-0.453323	0.535236	1.438287	-77.708408	85.678790
34429		0.565621	0.433681	-0.453296	0.535272	1.432953	-77.704543	85.687414
34430		0.565622	0.433608	-0.453343	0.535291	1.392463	-77.702266	85.722090
34431		0.565707	0.433480	-0.453429	0.535231	1.362881	-77.698576	85.730971
34432		0.565767	0.433347	-0.453475	0.535236	1.320905	-77.690201	85.759441
34433		0.565801	0.433243	-0.453500	0.535264	1.282685	-77.682407	85.789827
34434		0.565756	0.433199	-0.453508	0.535339	1.237615	-77.679109	85.838817
34435		0.565804	0.433074	-0.453586	0.535325	1.191560	-77.674820	85.869600
34436		0.565777	0.433042	-0.453554	0.535406	1.164029	-77.668312	85.903285
34437		0.565767	0.433021	-0.453499	0.535480	1.152572	-77.660385	85.921562
34438		0.565803	0.432972	-0.453477	0.535500	1.146702	-77.653118	85.924904
34439		0.565866	0.432893	-0.453486	0.535490	1.136824	-77.646065	85.925421
34440		0.565976	0.432760	-0.453517	0.535456	1.120460	-77.635838	85.924050
34441		0.565965	0.432719	-0.453485	0.535527	1.096948	-77.628434	85.951787
34442		0.566013	0.432656	-0.453507	0.535509	1.086587	-77.624376	85.953396
34443		0.566009	0.432649	-0.453489	0.535534	1.082541	-77.621817	85.959777
34444		0.565946	0.432679	-0.453474	0.535588	1.068173	-77.623341	85.983519
34445		0.565945	0.432671	-0.453441	0.535624	1.065730	-77.618931	85.989473
34446		0.565924	0.432739	-0.453370	0.535652	1.095181	-77.618249	85.970907
34447		0.565945	0.432749	-0.453352	0.535637	1.111614	-77.617195	85.953975
34448		0.565992	0.432730	-0.453360	0.535595	1.124440	-77.616113	85.934466
34449		0.566100	0.432629	-0.453434	0.535501	1.120355	-77.613768	85.916811
34450		0.566153	0.432582	-0.453480	0.535444	1.118947	-77.613873	85.906492
34451		0.566238	0.432499	-0.453560	0.535353	1.112667	-77.613939	85.893249
34452		0.566251	0.432495	-0.453580	0.535324	1.116095	-77.615774	85.886043
34453		0.566104	0.432604	-0.453525	0.535440	1.103185	-77.620990	85.923579
34454		0.566028	0.432682	-0.453542	0.535442	1.104248	-77.630700	85.930523
34455		0.565908	0.432774	-0.453548	0.535490	1.092309	-77.640760	85.957182
34456		0.565840	0.432814	-0.453618	0.535470	1.074246	-77.652288	85.976338
34457		0.565911	0.432727	-0.453742	0.535359	1.056106	-77.656843	85.971766
34458		0.565903	0.432724	-0.453806	0.535316	1.046091	-77.663373	85.975870
34459		0.565885	0.432711	-0.453862	0.535298	1.026371	-77.668043	85.991627
34460		0.565901	0.432692	-0.453936	0.535235	1.019058	-77.674004	85.989050
34461		0.565917	0.432618	-0.454021	0.535205	0.983072	-77.675709	86.013224
34462		0.565893	0.432600	-0.454095	0.535183	0.956756	-77.681839	86.034348
34463		0.565720	0.432697	-0.454054	0.535322	0.924300	-77.687430	86.092764
34464		0.565630	0.432730	-0.454078	0.535370	0.895630	-77.693408	86.129967
34465		0.565456	0.432830	-0.454028	0.535515	0.864463	-77.698339	86.188199
34466		0.565351	0.432865	-0.454055	0.535574	0.828900	-77.705003	86.233708
34467		0.565260	0.432879	-0.454102	0.535620	0.787973	-77.711458	86.280606
34468		0.565227	0.432815	-0.454199	0.535624	0.731924	-77.715465	86.329523
34469		0.565177	0.432747	-0.454272	0.535669	0.667786	-77.716575	86.391031
34470		0.565168	0.432667	-0.454373	0.535658	0.614732	-77.719284	86.433568
34471		0.565073	0.432658	-0.454380	0.535760	0.562875	-77.719245	86.495913
34472		0.564984	0.432603	-0.454436	0.535850	0.487126	-77.719828	86.575481
34473		0.564900	0.432546	-0.454522	0.535912	0.410456	-77.723266	86.652316
34474		0.564803	0.432482	-0.454627	0.535977	0.322252	-77.728182	86.740210
34475		0.564661	0.432463	-0.454647	0.536125	0.241569	-77.728415	86.835332
34476		0.564661	0.432342	-0.454776	0.536113	0.170246	-77.729950	86.891601
34477		0.564621	0.432253	-0.454845	0.536168	0.100436	-77.728339	86.957733
34478		0.564647	0.432118	-0.454896	0.536207	0.040595	-77.720098	87.007522
34479		0.564627	0.432034	-0.454930	0.536266	-0.013767	-77.715243	87.059637
34480		0.564564	0.432002	-0.454935	0.536355	-0.061111	-77.712475	87.113638
34481		0.564478	0.431982	-0.454927	0.536467	-0.112474	-77.709659	87.175676
34482		0.564387	0.431987	-0.454917	0.536568	-0.154083	-77.709047	87.229315
34483		0.564206	0.432058	-0.454856	0.536754	-0.202329	-77.709643	87.306290
34484		0.564206	0.431984	-0.454896	0.536779	-0.242368	-77.706406	87.341159
34485		0.564274	0.431844	-0.454931	0.536790	-0.282021	-77.695935	87.367448
34486		0.564314	0.431768	-0.454959	0.536785	-0.302262	-77.691195	87.379001
34487		0.564401	0.431663	-0.455026	0.536721	-0.317506	-77.687673	87.375694
34488		0.564412	0.431608	-0.455057	0.536728	-0.342089	-77.685398	87.395083
34489		0.564352	0.431615	-0.455042	0.536798	-0.366664	-77.684493	87.428449
34490		0.564306	0.431616	-0.455031	0.536856	-0.388266	-77.683287	87.456689
34491		0.564203	0.431696	-0.454966	0.536953	-0.392668	-77.684639	87.480940
34492		0.564133	0.431758	-0.454938	0.537002	-0.394478	-77.687799	87.494852
34493		0.564033	0.431847	-0.454874	0.537089	-0.393320	-77.690001	87.513293
34494		0.564015	0.431848	-0.454897	0.537088	-0.403566	-77.692476	87.523230
34495		0.563987	0.431899	-0.454881	0.537090	-0.390551	-77.696004	87.515832
34496		0.564055	0.431851	-0.454934	0.537012	-0.385727	-77.696908	87.496756
34497		0.564051	0.431839	-0.454940	0.537021	-0.394306	-77.696243	87.505050
34498		0.564086	0.431803	-0.454976	0.536982	-0.397669	-77.696426	87.500041
34499		0.563987	0.431877	-0.454918	0.537076	-0.404938	-77.697728	87.526000
34500		0.563936	0.431935	-0.454915	0.537086	-0.400728	-77.703311	87.528847
34501		0.563905	0.431953	-0.454963	0.537063	-0.411109	-77.710165	87.538004
34502		0.563916	0.431953	-0.455013	0.537008	-0.409639	-77.715611	87.529876
34503		0.563867	0.431995	-0.455012	0.537027	-0.412737	-77.719744	87.539415
34504		0.563894	0.431993	-0.455046	0.536972	-0.403672	-77.723102	87.523476
34505		0.563938	0.431922	-0.455124	0.536917	-0.423930	-77.724185	87.529488
34506		0.563944	0.431907	-0.455156	0.536896	-0.431383	-77.726117	87.532667
34507		0.563904	0.431934	-0.455161	0.536912	-0.437687	-77.729406	87.543520
34508		0.563874	0.431943	-0.455178	0.536921	-0.449442	-77.732149	87.556978
34509		0.563711	0.432050	-0.455095	0.537076	-0.468988	-77.734070	87.605848
34510		0.563679	0.432069	-0.455110	0.537082	-0.476511	-77.737633	87.615777
34511		0.563651	0.432063	-0.455113	0.537114	-0.493548	-77.737261	87.635825
34512		0.563649	0.432036	-0.455157	0.537100	-0.511663	-77.739247	87.649099
34513		0.563657	0.431998	-0.455225	0.537065	-0.532481	-77.742590	87.661386
34514		0.563603	0.431981	-0.455271	0.537096	-0.571599	-77.745599	87.701761
34515		0.563470	0.432025	-0.455254	0.537215	-0.613214	-77.748164	87.761408
34516		0.563441	0.431984	-0.455336	0.537209	-0.655151	-77.752656	87.797561
34517		0.563448	0.431890	-0.455455	0.537176	-0.708886	-77.755671	87.836727
34518		0.563440	0.431843	-0.455544	0.537146	-0.743746	-77.760439	87.862513
34519		0.563450	0.431776	-0.455650	0.537100	-0.781619	-77.764845	87.887224
34520		0.563462	0.431708	-0.455752	0.537056	-0.818777	-77.768734	87.911331
34521		0.563489	0.431629	-0.455838	0.537017	-0.851922	-77.769845	87.931175
34522		0.563472	0.431605	-0.455893	0.537009	-0.877464	-77.773172	87.952689
34523		0.563488	0.431558	-0.455979	0.536956	-0.900144	-77.777544	87.963748
34524		0.563428	0.431564	-0.456038	0.536964	-0.932106	-77.784301	87.996574
34525		0.563275	0.431623	-0.456083	0.537039	-0.982266	-77.794945	88.060775
34526		0.563221	0.431595	-0.456230	0.536994	-1.036201	-77.807657	88.105107
34527		0.563157	0.431559	-0.456355	0.536983	-1.096583	-77.817163	88.159325
34528		0.563115	0.431547	-0.456463	0.536945	-1.133315	-77.827308	88.189400
34529		0.563013	0.431561	-0.456531	0.536983	-1.182936	-77.835807	88.244028
34530		0.562969	0.431532	-0.456650	0.536950	-1.229602	-77.845480	88.282765
34531		0.562887	0.431564	-0.456710	0.536960	-1.260292	-77.854989	88.317235
34532		0.562812	0.431582	-0.456807	0.536942	-1.296934	-77.866965	88.352603
34533		0.562659	0.431639	-0.456829	0.537039	-1.347103	-77.874793	88.419245
34534		0.562576	0.431652	-0.456904	0.537050	-1.388435	-77.884042	88.462382
34535		0.562488	0.431661	-0.456966	0.537084	-1.434302	-77.891203	88.512285
34536		0.562438	0.431641	-0.457035	0.537092	-1.474844	-77.896448	88.551035
34537		0.562407	0.431594	-0.457100	0.537107	-1.519845	-77.898378	88.592232
34538		0.562373	0.431537	-0.457164	0.537135	-1.571380	-77.899181	88.640382
34539		0.562314	0.431477	-0.457215	0.537201	-1.635157	-77.898223	88.704955
34540		0.562247	0.431431	-0.457255	0.537273	-1.694621	-77.897518	88.767504
34541		0.562123	0.431452	-0.457264	0.537379	-1.746969	-77.900258	88.833789
34542		0.562017	0.431400	-0.457337	0.537470	-1.832350	-77.902189	88.923308
34543		0.561973	0.431293	-0.457438	0.537515	-1.916403	-77.901697	89.000514
34544		0.561886	0.431253	-0.457471	0.537611	-1.983155	-77.900592	89.073644
34545		0.561793	0.431234	-0.457485	0.537711	-2.039937	-77.899747	89.139582
34546		0.561732	0.431166	-0.457530	0.537791	-2.107838	-77.897250	89.209188
34547		0.561592	0.431166	-0.457478	0.537982	-2.172430	-77.891142	89.295761
34548		0.561538	0.431066	-0.457525	0.538078	-2.252383	-77.885351	89.375942
34549		0.561587	0.430843	-0.457652	0.538097	-2.349439	-77.875636	89.451057
34550		0.561549	0.430679	-0.457707	0.538222	-2.453782	-77.863967	89.552063
34551		0.561478	0.430533	-0.457731	0.538393	-2.562152	-77.850786	89.664572
34552		0.561409	0.430304	-0.457852	0.538544	-2.719397	-77.839100	89.814298
34553		0.561350	0.430015	-0.458068	0.538653	-2.910318	-77.831127	89.985754
34554		0.561277	0.429760	-0.458186	0.538832	-3.080456	-77.816194	90.148889
34555		0.561192	0.429568	-0.458214	0.539050	-3.216944	-77.798165	90.290124
34556		0.561159	0.429344	-0.458255	0.539229	-3.344026	-77.778367	90.414100
34557		0.561123	0.429115	-0.458293	0.539416	-3.473784	-77.757705	90.541227
34558		0.561109	0.428894	-0.458320	0.539582	-3.587405	-77.736896	90.650928
34559		0.561091	0.428682	-0.458306	0.539782	-3.694013	-77.712482	90.758589
34560		0.561089	0.428459	-0.458287	0.539977	-3.797131	-77.686503	90.861240
34561		0.561068	0.428252	-0.458249	0.540195	-3.898271	-77.660102	90.966339
34562		0.561010	0.428075	-0.458209	0.540429	-4.003678	-77.636337	91.080646
34563		0.561075	0.427791	-0.458266	0.540539	-4.110127	-77.612248	91.169879
34564		0.560982	0.427656	-0.458224	0.540778	-4.211978	-77.592509	91.285508
34565		0.560833	0.427567	-0.458154	0.541061	-4.315401	-77.574372	91.412702
34566		0.560731	0.427472	-0.458072	0.541312	-4.398060	-77.554494	91.514881
34567		0.560675	0.427356	-0.458061	0.541471	-4.476104	-77.540266	91.599268
34568		0.560625	0.427240	-0.458073	0.541604	-4.553655	-77.528594	91.679946
34569		0.560563	0.427120	-0.458073	0.541762	-4.637259	-77.515135	91.769251
34570		0.560535	0.426973	-0.458113	0.541874	-4.721558	-77.503074	91.850828
34571		0.560506	0.426839	-0.458137	0.541989	-4.798465	-77.490826	91.926864
34572		0.560455	0.426687	-0.458142	0.542157	-4.891414	-77.474299	92.023368
34573		0.560323	0.426579	-0.458109	0.542406	-4.997975	-77.457788	92.147499
34574		0.560237	0.426444	-0.458144	0.542572	-5.103049	-77.445953	92.257268
34575		0.560137	0.426293	-0.458232	0.542719	-5.227950	-77.437747	92.382611
34576		0.560079	0.426135	-0.458345	0.542807	-5.339174	-77.431829	92.486620
34577		0.560085	0.425887	-0.458515	0.542853	-5.467276	-77.422537	92.592943
34578		0.560125	0.425622	-0.458716	0.542850	-5.590211	-77.414990	92.686402
34579		0.560065	0.425451	-0.458851	0.542932	-5.710448	-77.409734	92.797192
34580		0.560073	0.425285	-0.458989	0.542936	-5.796544	-77.406157	92.865595
34581		0.560023	0.425231	-0.458979	0.543038	-5.842614	-77.398671	92.917847
34582		0.560037	0.425136	-0.459008	0.543074	-5.881073	-77.391365	92.950353
34583		0.559967	0.425110	-0.458961	0.543207	-5.919467	-77.382670	93.001728
34584		0.559996	0.425082	-0.458934	0.543221	-5.913960	-77.377136	92.995259
34585		0.560005	0.425086	-0.458869	0.543264	-5.899858	-77.370794	92.987048
34586		0.560077	0.425022	-0.458877	0.543233	-5.894509	-77.365365	92.971589
34587		0.560108	0.425006	-0.458847	0.543238	-5.882973	-77.360850	92.959352
34588		0.560151	0.425052	-0.458807	0.543193	-5.838094	-77.362064	92.914344
34589		0.560111	0.425170	-0.458696	0.543236	-5.791447	-77.362888	92.885758
34590		0.560163	0.425171	-0.458659	0.543211	-5.761188	-77.359771	92.853210
34591		0.560169	0.425235	-0.458593	0.543210	-5.722143	-77.360001	92.821238
34592		0.560198	0.425298	-0.458540	0.543177	-5.674324	-77.361596	92.776577
34593		0.560279	0.425342	-0.458507	0.543087	-5.613190	-77.363739	92.710033
34594		0.560324	0.425422	-0.458455	0.543022	-5.550859	-77.367564	92.648944
34595		0.560355	0.425497	-0.458434	0.542948	-5.500703	-77.373888	92.598313
34596		0.560352	0.425603	-0.458420	0.542880	-5.453646	-77.384090	92.554427
34597		0.560207	0.425845	-0.458306	0.542937	-5.401642	-77.397032	92.534656
34598		0.560173	0.425999	-0.458275	0.542877	-5.345898	-77.410354	92.488148
34599		0.560237	0.426097	-0.458308	0.542705	-5.276477	-77.425273	92.408868
34600		0.560228	0.426229	-0.458319	0.542602	-5.224356	-77.440783	92.358328
34601		0.560162	0.426408	-0.458289	0.542555	-5.172344	-77.456568	92.319570
34602		0.560161	0.426543	-0.458309	0.542433	-5.115188	-77.473433	92.262105
34603		0.560134	0.426687	-0.458318	0.542340	-5.065229	-77.489993	92.216134
34604		0.560086	0.426803	-0.458383	0.542243	-5.044137	-77.509032	92.195203
34605		0.559981	0.426962	-0.458432	0.542185	-5.029208	-77.530524	92.189389
34606		0.559902	0.427078	-0.458567	0.542061	-5.032064	-77.556822	92.188588
34607		0.559904	0.427142	-0.458707	0.541890	-5.019521	-77.578550	92.161791
34608		0.559890	0.427244	-0.458771	0.541770	-4.988492	-77.596363	92.126829
34609		0.559915	0.427332	-0.458830	0.541625	-4.943880	-77.612439	92.074197
34610		0.559890	0.427465	-0.458845	0.541533	-4.897791	-77.628395	92.031106
34611		0.559882	0.427588	-0.458867	0.541426	-4.848666	-77.643989	91.982104
34612		0.559854	0.427757	-0.458848	0.541338	-4.783153	-77.660159	91.924030
34613		0.559802	0.427905	-0.458858	0.541266	-4.742186	-77.676908	91.889861
34614		0.559759	0.428005	-0.458889	0.541205	-4.720832	-77.690750	91.871543
34615		0.559632	0.428205	-0.458823	0.541233	-4.682994	-77.704502	91.857978
34616		0.559594	0.428328	-0.458833	0.541167	-4.646317	-77.718630	91.826208
34617		0.559487	0.428493	-0.458787	0.541186	-4.617065	-77.730700	91.816408
34618		0.559499	0.428556	-0.458818	0.541098	-4.586419	-77.740998	91.781926
34619		0.559515	0.428598	-0.458867	0.541007	-4.564941	-77.750809	91.753893
34620		0.559530	0.428667	-0.458889	0.540918	-4.528564	-77.760799	91.714269
34621		0.559414	0.428806	-0.458827	0.540980	-4.513247	-77.768392	91.720776
34622		0.559440	0.428832	-0.458853	0.540911	-4.492211	-77.774129	91.694331
34623		0.559361	0.428955	-0.458798	0.540942	-4.467195	-77.781063	91.685915
34624		0.559346	0.429024	-0.458798	0.540902	-4.442285	-77.788547	91.663556
34625		0.559292	0.429124	-0.458761	0.540910	-4.418054	-77.794954	91.650881
34626		0.559306	0.429176	-0.458788	0.540832	-4.390554	-77.803630	91.619469
34627		0.559305	0.429227	-0.458807	0.540776	-4.369336	-77.811143	91.597001
34628		0.559328	0.429264	-0.458830	0.540704	-4.344136	-77.817748	91.567094
34629		0.559395	0.429272	-0.458866	0.540596	-4.311314	-77.823027	91.522577
34630		0.559468	0.429267	-0.458911	0.540487	-4.283725	-77.827805	91.481621
34631		0.559458	0.429278	-0.458861	0.540531	-4.277555	-77.823618	91.482116
34632		0.559517	0.429268	-0.458856	0.540481	-4.252171	-77.822523	91.450126
34633		0.559591	0.429267	-0.458848	0.540413	-4.215679	-77.822155	91.405889
34634		0.559653	0.429267	-0.458864	0.540335	-4.187420	-77.824307	91.368639
34635		0.559703	0.429297	-0.458831	0.540288	-4.144564	-77.824416	91.323790
34636		0.559769	0.429327	-0.458800	0.540222	-4.094688	-77.824848	91.269856
34637		0.559862	0.429293	-0.458849	0.540111	-4.070567	-77.827096	91.229210
34638		0.559952	0.429258	-0.458897	0.540005	-4.048855	-77.829133	91.191356
34639		0.559947	0.429281	-0.458904	0.539986	-4.041095	-77.832255	91.183723
34640		0.560034	0.429238	-0.458950	0.539891	-4.023940	-77.833173	91.151033
34641		0.560113	0.429177	-0.459020	0.539798	-4.022203	-77.834521	91.131815
34642		0.560180	0.429111	-0.459066	0.539741	-4.025476	-77.832882	91.121469
34643		0.560303	0.428998	-0.459158	0.539625	-4.028540	-77.831361	91.098829
34644		0.560343	0.428967	-0.459172	0.539596	-4.025229	-77.829816	91.089043
34645		0.560384	0.428909	-0.459226	0.539554	-4.038299	-77.829546	91.090894
34646		0.560453	0.428833	-0.459281	0.539495	-4.046184	-77.827741	91.083872
34647		0.560551	0.428785	-0.459323	0.539396	-4.025826	-77.827727	91.046900
34648		0.560633	0.428742	-0.459333	0.539336	-4.006501	-77.824840	91.016302
34649		0.560657	0.428719	-0.459321	0.539340	-4.004198	-77.821214	91.012205
34650		0.560741	0.428649	-0.459339	0.539293	-3.998123	-77.816171	90.993486
34651		0.561013	0.428440	-0.459488	0.539050	-3.980036	-77.811404	90.925144
34652		0.561078	0.428382	-0.459508	0.539011	-3.977141	-77.807786	90.911686
34653		0.560959	0.428459	-0.459359	0.539200	-3.982182	-77.799396	90.947557
34654		0.561020	0.428385	-0.459354	0.539200	-3.986817	-77.791417	90.944627
34655		0.560971	0.428367	-0.459268	0.539339	-4.009287	-77.779891	90.981897
34656		0.561067	0.428225	-0.459297	0.539327	-4.032089	-77.768474	90.988517
34657		0.561265	0.428019	-0.459381	0.539212	-4.040760	-77.756695	90.962358
34658		0.561384	0.427868	-0.459382	0.539207	-4.053160	-77.741399	90.958850
34659		0.561520	0.427702	-0.459381	0.539199	-4.064283	-77.724425	90.952072
34660		0.561638	0.427558	-0.459343	0.539222	-4.069429	-77.705731	90.945569
34661		0.561713	0.427455	-0.459285	0.539276	-4.074158	-77.688934	90.946467
34662		0.561848	0.427281	-0.459256	0.539297	-4.085836	-77.668241	90.943127
34663		0.561900	0.427195	-0.459171	0.539383	-4.090237	-77.650312	90.949440
34664		0.562005	0.427111	-0.459082	0.539416	-4.068220	-77.632602	90.923496
34665		0.562051	0.427128	-0.458902	0.539508	-4.017690	-77.615602	90.886920
34666		0.562104	0.427145	-0.458712	0.539600	-3.962597	-77.597779	90.845947
34667		0.562133	0.427194	-0.458430	0.539771	-3.894229	-77.573334	90.804754
34668		0.562207	0.427169	-0.458229	0.539886	-3.847915	-77.549767	90.770884
34669		0.562277	0.427147	-0.458057	0.539977	-3.805159	-77.529578	90.737950
34670		0.562399	0.427069	-0.457978	0.539977	-3.773369	-77.513807	90.699054
34671		0.562517	0.426951	-0.457947	0.539975	-3.768135	-77.498606	90.681909
34672		0.562604	0.426890	-0.457899	0.539972	-3.748560	-77.487673	90.656342
34673		0.562632	0.426876	-0.457837	0.540007	-3.735113	-77.479754	90.646131
34674		0.562648	0.426883	-0.457779	0.540034	-3.717632	-77.474401	90.632907
34675		0.562653	0.426868	-0.457725	0.540087	-3.716313	-77.467071	90.636625
34676		0.562647	0.426907	-0.457651	0.540124	-3.692890	-77.463470	90.622124
34677		0.562655	0.426895	-0.457638	0.540137	-3.693309	-77.460767	90.622931
34678		0.562650	0.426923	-0.457660	0.540101	-3.685459	-77.466116	90.613687
34679		0.562623	0.426926	-0.457706	0.540088	-3.701893	-77.471124	90.628518
34680		0.562665	0.426872	-0.457805	0.540002	-3.717504	-77.476207	90.627855
34681		0.562679	0.426828	-0.457916	0.539929	-3.743461	-77.483297	90.639993
34682		0.562718	0.426763	-0.458069	0.539811	-3.772163	-77.492812	90.646978
34683		0.562773	0.426668	-0.458285	0.539644	-3.813188	-77.505938	90.657295
34684		0.562791	0.426627	-0.458456	0.539513	-3.842574	-77.519895	90.665962
34685		0.562760	0.426647	-0.458554	0.539446	-3.859436	-77.532203	90.676247
34686		0.562783	0.426672	-0.458673	0.539301	-3.850307	-77.547681	90.652116
34687		0.562884	0.426591	-0.458903	0.539063	-3.864002	-77.564175	90.628413
34688		0.562925	0.426599	-0.459076	0.538867	-3.860472	-77.583754	90.601742
34689		0.562892	0.426702	-0.459185	0.538728	-3.841005	-77.606109	90.575833
34690		0.562860	0.426809	-0.459284	0.538592	-3.817749	-77.627872	90.547106
34691		0.562774	0.426921	-0.459362	0.538526	-3.815981	-77.647508	90.548528
34692		0.562715	0.427043	-0.459416	0.538445	-3.793585	-77.665959	90.528914
34693		0.562655	0.427155	-0.459463	0.538378	-3.775736	-77.682563	90.514390
34694		0.562616	0.427236	-0.459511	0.538314	-3.762296	-77.696007	90.501454
34695		0.562483	0.427374	-0.459500	0.538353	-3.761420	-77.708753	90.519103
34696		0.562474	0.427409	-0.459589	0.538259	-3.759099	-77.721936	90.508861
34697		0.562525	0.427402	-0.459712	0.538106	-3.751445	-77.734624	90.481994
34698		0.562552	0.427386	-0.459823	0.537995	-3.757667	-77.744931	90.472950
34699		0.562604	0.427349	-0.459951	0.537860	-3.763696	-77.755003	90.458681
34700		0.562614	0.427352	-0.460019	0.537790	-3.765320	-77.762633	90.451984
34701		0.562602	0.427355	-0.460059	0.537766	-3.773707	-77.767057	90.457585
34702		0.562560	0.427378	-0.460027	0.537820	-3.780411	-77.765781	90.472956
34703		0.562513	0.427426	-0.459988	0.537864	-3.776450	-77.766525	90.479281
34704		0.562488	0.427463	-0.459934	0.537907	-3.765788	-77.764528	90.477758
34705		0.562465	0.427464	-0.459909	0.537950	-3.773011	-77.761882	90.490299
34706		0.562463	0.427443	-0.459903	0.537976	-3.783711	-77.758833	90.501721
34707		0.562498	0.427377	-0.459918	0.537978	-3.798967	-77.753628	90.510401
34708		0.562549	0.427294	-0.459962	0.537953	-3.817696	-77.749828	90.517440
34709		0.562605	0.427174	-0.460030	0.537932	-3.854314	-77.744602	90.538783
34710		0.562624	0.427102	-0.460044	0.537957	-3.880163	-77.738518	90.560005
34711		0.562589	0.427111	-0.459999	0.538024	-3.887949	-77.734481	90.576754
34712		0.562577	0.427093	-0.459951	0.538092	-3.897005	-77.727399	90.592093
34713		0.562532	0.427099	-0.459875	0.538200	-3.907806	-77.719543	90.616352
34714		0.562511	0.427122	-0.459806	0.538263	-3.899646	-77.714537	90.618432
34715		0.562459	0.427161	-0.459705	0.538373	-3.895789	-77.707558	90.631883
34716		0.562488	0.427133	-0.459672	0.538392	-3.890570	-77.701250	90.626377
34717		0.562517	0.427090	-0.459665	0.538403	-3.896079	-77.696075	90.628776
34718		0.562570	0.427041	-0.459692	0.538363	-3.896001	-77.694102	90.618980
34719		0.562519	0.427090	-0.459630	0.538430	-3.891117	-77.692396	90.627332
34720		0.562553	0.427079	-0.459627	0.538405	-3.878922	-77.691157	90.611273
34721		0.562569	0.427102	-0.459591	0.538402	-3.856589	-77.689858	90.591185
34722		0.562527	0.427186	-0.459534	0.538427	-3.831427	-77.692553	90.578045
34723		0.562440	0.427309	-0.459466	0.538478	-3.808652	-77.697914	90.574256
34724		0.562417	0.427330	-0.459465	0.538487	-3.810325	-77.699863	90.578944
34725		0.562392	0.427392	-0.459433	0.538491	-3.789885	-77.702945	90.565644
34726		0.562434	0.427389	-0.459475	0.538415	-3.775708	-77.707315	90.542139
34727		0.562419	0.427410	-0.459491	0.538399	-3.774696	-77.711269	90.541349
34728		0.562479	0.427343	-0.459589	0.538306	-3.787364	-77.714899	90.535683
34729		0.562516	0.427276	-0.459706	0.538220	-3.813707	-77.720398	90.544413
34730		0.562556	0.427251	-0.459809	0.538110	-3.817375	-77.729032	90.532028
34731		0.562570	0.427271	-0.459863	0.538034	-3.807304	-77.736971	90.514800
34732		0.562539	0.427318	-0.459906	0.537992	-3.805023	-77.746368	90.512160
34733		0.562544	0.427357	-0.459964	0.537907	-3.790956	-77.756739	90.491853
34734		0.562527	0.427386	-0.460020	0.537853	-3.791679	-77.765727	90.488938
34735		0.562475	0.427428	-0.460091	0.537814	-3.805651	-77.777391	90.501933
34736		0.562463	0.427455	-0.460165	0.537742	-3.806903	-77.788037	90.497067
34737		0.562443	0.427479	-0.460214	0.537701	-3.811057	-77.795788	90.498648
34738		0.562451	0.427441	-0.460332	0.537623	-3.838297	-77.804267	90.511953
34739		0.562475	0.427376	-0.460481	0.537521	-3.873357	-77.813478	90.527440
34740		0.562489	0.427353	-0.460611	0.537414	-3.892015	-77.824882	90.530366
34741		0.562395	0.427386	-0.460689	0.537418	-3.931175	-77.836137	90.572623
34742		0.562354	0.427388	-0.460767	0.537393	-3.959246	-77.844322	90.597200
34743		0.562279	0.427424	-0.460796	0.537418	-3.982489	-77.850719	90.626664
34744		0.562235	0.427444	-0.460839	0.537412	-3.999818	-77.857094	90.644859
34745		0.562099	0.427509	-0.460833	0.537507	-4.035324	-77.862463	90.697776
34746		0.562074	0.427490	-0.460900	0.537491	-4.064416	-77.867381	90.722489
34747		0.562055	0.427467	-0.460946	0.537490	-4.089937	-77.869634	90.745093
34748		0.562037	0.427460	-0.460995	0.537472	-4.107702	-77.873928	90.759655
34749		0.562008	0.427458	-0.461008	0.537493	-4.124421	-77.874847	90.778347
34750		0.561965	0.427475	-0.461032	0.537503	-4.140235	-77.879078	90.796817
34751		0.561907	0.427480	-0.461051	0.537544	-4.168942	-77.881106	90.830393
34752		0.561884	0.427450	-0.461121	0.537532	-4.202181	-77.885131	90.858560
34753		0.561682	0.427561	-0.461037	0.537726	-4.240104	-77.886657	90.930528
34754		0.561649	0.427562	-0.461040	0.537758	-4.256782	-77.886680	90.950869
34755		0.561737	0.427468	-0.461116	0.537675	-4.266169	-77.885474	90.940599
34756		0.561716	0.427435	-0.461156	0.537690	-4.296711	-77.885930	90.969052
34757		0.561678	0.427412	-0.461199	0.537710	-4.331258	-77.887714	91.003175
34758		0.561652	0.427400	-0.461227	0.537723	-4.353145	-77.889216	91.024953
34759		0.561673	0.427357	-0.461286	0.537684	-4.369792	-77.891040	91.032272
34760		0.561640	0.427376	-0.461295	0.537696	-4.378406	-77.893764	91.044037
34761		0.561558	0.427409	-0.461266	0.537780	-4.399698	-77.893577	91.078507
34762		0.561540	0.427409	-0.461276	0.537791	-4.410225	-77.894465	91.090104
34763		0.561522	0.427395	-0.461292	0.537807	-4.427522	-77.894542	91.107641
34764		0.561510	0.427358	-0.461366	0.537785	-4.459317	-77.898292	91.132386
34765		0.561500	0.427343	-0.461417	0.537763	-4.476778	-77.902048	91.145476
34766		0.561503	0.427294	-0.461460	0.537763	-4.503604	-77.901290	91.166836
34767		0.561402	0.427305	-0.461484	0.537840	-4.551581	-77.904122	91.224250
34768		0.561365	0.427274	-0.461527	0.537865	-4.589555	-77.905080	91.261548
34769		0.561257	0.427324	-0.461467	0.537990	-4.612658	-77.903209	91.304385
34770		0.561217	0.427354	-0.461444	0.538027	-4.615581	-77.903728	91.314841
34771		0.561195	0.427344	-0.461461	0.538044	-4.633127	-77.904220	91.333034
34772		0.561191	0.427325	-0.461485	0.538043	-4.646712	-77.904684	91.344428
34773		0.561224	0.427287	-0.461531	0.537999	-4.654002	-77.905723	91.342391
34774		0.561245	0.427285	-0.461535	0.537974	-4.644269	-77.906180	91.329642
34775		0.561237	0.427266	-0.461561	0.537976	-4.660644	-77.906829	91.344022
34776		0.561229	0.427241	-0.461588	0.537981	-4.679378	-77.906876	91.360569
34777		0.561230	0.427209	-0.461615	0.537982	-4.697101	-77.906269	91.374780
34778		0.561159	0.427244	-0.461607	0.538036	-4.715321	-77.908558	91.402734
34779		0.561157	0.427212	-0.461659	0.538018	-4.737057	-77.910656	91.418661
34780		0.561112	0.427200	-0.461644	0.538087	-4.762933	-77.907433	91.451297
34781		0.561092	0.427180	-0.461653	0.538117	-4.783773	-77.905871	91.473390
34782		0.561103	0.427184	-0.461634	0.538118	-4.773939	-77.904435	91.464312
34783		0.561160	0.427132	-0.461654	0.538083	-4.772456	-77.901432	91.453279
34784		0.561180	0.427120	-0.461631	0.538091	-4.764990	-77.897922	91.445776
34785		0.561143	0.427185	-0.461539	0.538157	-4.742227	-77.894786	91.438019
34786		0.561169	0.427196	-0.461489	0.538165	-4.718756	-77.890862	91.416980
34787		0.561161	0.427231	-0.461429	0.538197	-4.699164	-77.888254	91.405159
34788		0.561160	0.427249	-0.461361	0.538242	-4.682962	-77.882961	91.396568
34789		0.561141	0.427317	-0.461224	0.538325	-4.644185	-77.875552	91.375457
34790		0.561153	0.427364	-0.461173	0.538318	-4.610369	-77.875466	91.346249
34791		0.561182	0.427363	-0.461150	0.538308	-4.593406	-77.873072	91.328303
34792		0.561220	0.427409	-0.461073	0.538298	-4.544370	-77.870250	91.283562
34793		0.561263	0.427449	-0.460969	0.538310	-4.492007	-77.863848	91.237685
34794		0.561329	0.427464	-0.460862	0.538321	-4.439938	-77.854667	91.189417
34795		0.561296	0.427570	-0.460683	0.538424	-4.385630	-77.846843	91.159379
34796		0.561319	0.427618	-0.460605	0.538431	-4.343507	-77.843813	91.123557
34797		0.561343	0.427638	-0.460533	0.538451	-4.313848	-77.838526	91.099036
34798		0.561382	0.427607	-0.460540	0.538429	-4.310105	-77.836245	91.089507
34799		0.561398	0.427561	-0.460523	0.538463	-4.321341	-77.829684	91.100070
34800		0.561458	0.427507	-0.460531	0.538437	-4.318411	-77.825092	91.088578
34801		0.561373	0.427575	-0.460433	0.538555	-4.316993	-77.821349	91.108479
34802		0.561410	0.427553	-0.460426	0.538540	-4.308162	-77.818527	91.095758
34803		0.561512	0.427449	-0.460470	0.538479	-4.311504	-77.812715	91.081187
34804		0.561524	0.427402	-0.460509	0.538470	-4.332047	-77.811882	91.095580
34805		0.561523	0.427358	-0.460582	0.538443	-4.361472	-77.814943	91.116733
34806		0.561478	0.427341	-0.460618	0.538473	-4.395776	-77.816547	91.152354
34807		0.561477	0.427315	-0.460646	0.538471	-4.411869	-77.816679	91.165204
34808		0.561456	0.427281	-0.460679	0.538491	-4.441846	-77.816378	91.193711
34809		0.561421	0.427212	-0.460737	0.538533	-4.497694	-77.814843	91.246651
34810		0.561396	0.427149	-0.460824	0.538535	-4.549850	-77.816909	91.291794
34811		0.561351	0.427116	-0.460877	0.538562	-4.593274	-77.818743	91.334367
34812		0.561364	0.427019	-0.460980	0.538538	-4.644624	-77.819195	91.372047
34813		0.561356	0.426918	-0.461086	0.538535	-4.707809	-77.819448	91.423592
34814		0.561375	0.426790	-0.461221	0.538501	-4.773492	-77.820056	91.471151
34815		0.561385	0.426693	-0.461318	0.538485	-4.825187	-77.819871	91.510068
34816		0.561394	0.426657	-0.461360	0.538467	-4.842351	-77.820605	91.521183
34817		0.561355	0.426634	-0.461392	0.538499	-4.875968	-77.821116	91.555799
34818		0.561330	0.426639	-0.461409	0.538508	-4.888336	-77.823150	91.569369
34819		0.561292	0.426620	-0.461423	0.538549	-4.917446	-77.822288	91.601099
34820		0.561258	0.426596	-0.461476	0.538559	-4.951467	-77.825008	91.633267
34821		0.561214	0.426573	-0.461525	0.538580	-4.989522	-77.827287	91.670893
34822		0.561214	0.426535	-0.461571	0.538571	-5.012938	-77.828061	91.688970
34823		0.561206	0.426493	-0.461586	0.538600	-5.037642	-77.825006	91.712496
34824		0.561237	0.426406	-0.461637	0.538592	-5.068594	-77.821206	91.733256
34825		0.561198	0.426342	-0.461666	0.538659	-5.120964	-77.816923	91.786265
34826		0.561212	0.426266	-0.461713	0.538664	-5.154636	-77.813818	91.812436
34827		0.561219	0.426200	-0.461759	0.538670	-5.187196	-77.811494	91.838471
34828		0.561208	0.426167	-0.461776	0.538693	-5.209878	-77.809641	91.860197
34829		0.561136	0.426187	-0.461745	0.538778	-5.232101	-77.807842	91.894448
34830		0.561115	0.426152	-0.461766	0.538810	-5.260973	-77.806029	91.923069
34831		0.561176	0.426084	-0.461810	0.538763	-5.267818	-77.803778	91.917270
34832		0.561174	0.426079	-0.461792	0.538785	-5.268868	-77.801254	91.920423
34833		0.561122	0.426112	-0.461743	0.538855	-5.273380	-77.799197	91.936732
34834		0.561097	0.426096	-0.461735	0.538900	-5.291902	-77.796332	91.958771
34835		0.561042	0.426092	-0.461698	0.538992	-5.315792	-77.791464	91.993048
34836		0.561053	0.426008	-0.461724	0.539025	-5.352040	-77.785062	92.024194
34837		0.561063	0.425921	-0.461768	0.539046	-5.392288	-77.780349	92.057523
34838		0.561046	0.425824	-0.461849	0.539071	-5.455249	-77.778125	92.112623
34839		0.561069	0.425729	-0.461902	0.539075	-5.493455	-77.773611	92.141178
34840		0.561059	0.425670	-0.461946	0.539096	-5.530849	-77.771625	92.174458
34841		0.561040	0.425636	-0.461949	0.539140	-5.555994	-77.767989	92.201053
34842		0.561023	0.425631	-0.461923	0.539184	-5.563090	-77.764545	92.212850
34843		0.561033	0.425578	-0.461944	0.539197	-5.584666	-77.761050	92.230347
34844		0.561050	0.425554	-0.461968	0.539178	-5.590545	-77.761184	92.231376
34845		0.561172	0.425397	-0.462089	0.539070	-5.617120	-77.758045	92.228670
34846		0.561195	0.425343	-0.462145	0.539041	-5.637268	-77.758309	92.239504
34847		0.561232	0.425241	-0.462209	0.539028	-5.673935	-77.754352	92.263703
34848		0.561279	0.425127	-0.462288	0.539002	-5.712708	-77.750576	92.287126
34849		0.561300	0.425021	-0.462382	0.538982	-5.761729	-77.749160	92.322215
34850		0.561295	0.424960	-0.462443	0.538984	-5.799794	-77.748798	92.353671
34851		0.561293	0.424878	-0.462508	0.538994	-5.845769	-77.746752	92.391879
34852		0.561283	0.424836	-0.462546	0.539005	-5.874116	-77.746062	92.416786
34853		0.561261	0.424769	-0.462603	0.539032	-5.922920	-77.744450	92.461267
34854		0.561275	0.424711	-0.462645	0.539028	-5.947367	-77.742593	92.478894
34855		0.561277	0.424700	-0.462615	0.539059	-5.947298	-77.738304	92.481537
34856		0.561296	0.424673	-0.462610	0.539067	-5.950039	-77.734882	92.482409
34857		0.561295	0.424645	-0.462629	0.539072	-5.964886	-77.733919	92.494848
34858		0.561318	0.424572	-0.462672	0.539069	-5.992087	-77.730683	92.513848
34859		0.561309	0.424495	-0.462722	0.539096	-6.037527	-77.727382	92.554101
34860		0.561312	0.424394	-0.462822	0.539086	-6.094352	-77.726892	92.598579
34861		0.561367	0.424235	-0.462978	0.539021	-6.158872	-77.726464	92.638001
34862		0.561396	0.424063	-0.463109	0.539013	-6.238697	-77.721681	92.698158
34863		0.561526	0.423822	-0.463261	0.538937	-6.302642	-77.712609	92.727596
34864		0.561567	0.423692	-0.463327	0.538940	-6.349314	-77.705733	92.760727
34865		0.561677	0.423564	-0.463387	0.538874	-6.360747	-77.699245	92.751095
34866		0.561691	0.423556	-0.463365	0.538884	-6.354349	-77.696229	92.745392
34867		0.561716	0.423537	-0.463348	0.538888	-6.348557	-77.692518	92.738164
34868		0.561721	0.423527	-0.463329	0.538907	-6.348323	-77.689519	92.739327
34869		0.561684	0.423558	-0.463296	0.538949	-6.347780	-77.689001	92.746956
34870		0.561690	0.423540	-0.463304	0.538951	-6.354027	-77.687926	92.751525
34871		0.561642	0.423512	-0.463303	0.539024	-6.389830	-77.684095	92.792714
34872		0.561658	0.423424	-0.463340	0.539044	-6.425592	-77.678503	92.821479
34873		0.561645	0.423355	-0.463349	0.539103	-6.463379	-77.671752	92.858876
34874		0.561684	0.423261	-0.463375	0.539115	-6.490008	-77.664497	92.877015
34875		0.561675	0.423220	-0.463363	0.539167	-6.510949	-77.658498	92.899810
34876		0.561711	0.423156	-0.463399	0.539149	-6.526822	-77.655650	92.906777
34877		0.561754	0.423129	-0.463424	0.539104	-6.520763	-77.655819	92.892644
34878		0.561778	0.423117	-0.463436	0.539077	-6.516050	-77.656130	92.883665
34879		0.561739	0.423157	-0.463427	0.539094	-6.515949	-77.659117	92.889522
34880		0.561748	0.423166	-0.463451	0.539058	-6.510982	-77.662692	92.881176
34881		0.561755	0.423183	-0.463471	0.539020	-6.502802	-77.666805	92.870224
34882		0.561777	0.423149	-0.463545	0.538959	-6.516725	-77.671216	92.873136
34883		0.561763	0.423146	-0.463550	0.538972	-6.525727	-77.671262	92.883260
34884		0.561806	0.423087	-0.463613	0.538919	-6.538768	-77.671944	92.883713
34885		0.561934	0.423026	-0.463679	0.538777	-6.513117	-77.673698	92.835210
34886		0.561994	0.422983	-0.463732	0.538703	-6.510000	-77.675265	92.818788
34887		0.562018	0.422991	-0.463737	0.538668	-6.495615	-77.676864	92.801258
34888		0.562053	0.422991	-0.463766	0.538606	-6.482358	-77.680445	92.780643
34889		0.562072	0.423005	-0.463763	0.538577	-6.466095	-77.682006	92.762611
34890		0.562078	0.423050	-0.463746	0.538550	-6.441192	-77.685227	92.739381
34891		0.562026	0.423114	-0.463705	0.538590	-6.432547	-77.687270	92.742115
34892		0.562018	0.423152	-0.463713	0.538562	-6.420765	-77.692182	92.730925
34893		0.562035	0.423159	-0.463729	0.538524	-6.411388	-77.694919	92.717867
34894		0.562087	0.423111	-0.463768	0.538474	-6.412450	-77.694370	92.708126
34895		0.562203	0.423033	-0.463814	0.538375	-6.397225	-77.691993	92.673332
34896		0.562250	0.423024	-0.463842	0.538308	-6.381652	-77.694632	92.649015
34897		0.562287	0.423040	-0.463851	0.538250	-6.357882	-77.697680	92.620166
34898		0.562275	0.423097	-0.463830	0.538236	-6.335711	-77.701577	92.602354
34899		0.562234	0.423181	-0.463777	0.538258	-6.311317	-77.704831	92.589579
34900		0.562228	0.423252	-0.463762	0.538221	-6.280372	-77.711034	92.561788
34901		0.562236	0.423272	-0.463768	0.538192	-6.268620	-77.713959	92.548828
34902		0.562291	0.423251	-0.463816	0.538110	-6.257677	-77.717334	92.525966
34903		0.562348	0.423229	-0.463851	0.538037	-6.243883	-77.719385	92.501347
34904		0.562428	0.423215	-0.463853	0.537963	-6.211701	-77.718902	92.459422
34905		0.562512	0.423208	-0.463839	0.537893	-6.172488	-77.717591	92.411703
34906		0.562600	0.423197	-0.463849	0.537800	-6.135422	-77.718490	92.362999
34907		0.562640	0.423233	-0.463815	0.537761	-6.095924	-77.719217	92.322956
34908		0.562665	0.423306	-0.463747	0.537735	-6.041904	-77.720347	92.274170
34909		0.562710	0.423366	-0.463674	0.537703	-5.983834	-77.719684	92.219285
34910		0.562741	0.423419	-0.463616	0.537680	-5.938268	-77.719686	92.176976
34911		0.562744	0.423510	-0.463494	0.537710	-5.880355	-77.716780	92.132878
34912		0.562795	0.423558	-0.463444	0.537662	-5.827644	-77.717213	92.080142
34913		0.562846	0.423609	-0.463377	0.537627	-5.771588	-77.716187	92.025966
34914		0.562947	0.423613	-0.463335	0.537553	-5.715089	-77.713353	91.961999
34915		0.563077	0.423592	-0.463305	0.537458	-5.657148	-77.709270	91.891585
34916		0.563206	0.423562	-0.463296	0.537356	-5.607166	-77.706268	91.826989
34917		0.563361	0.423478	-0.463315	0.537243	-5.571866	-77.700691	91.770367
34918		0.563500	0.423398	-0.463365	0.537116	-5.546465	-77.698835	91.722127
34919		0.563652	0.423359	-0.463359	0.536993	-5.489374	-77.695413	91.647257
34920		0.563795	0.423361	-0.463293	0.536899	-5.411280	-77.690005	91.559402
34921		0.563870	0.423454	-0.463126	0.536890	-5.312237	-77.683193	91.470480
34922		0.563920	0.423560	-0.462974	0.536886	-5.221680	-77.678895	91.391706
34923		0.563931	0.423685	-0.462825	0.536905	-5.141986	-77.676701	91.328176
34924		0.563959	0.423840	-0.462646	0.536906	-5.036174	-77.674746	91.240092
34925		0.563975	0.423956	-0.462454	0.536964	-4.953001	-77.666969	91.177059
34926		0.564020	0.424038	-0.462316	0.536971	-4.877380	-77.661539	91.111952
34927		0.564018	0.424113	-0.462194	0.537018	-4.829675	-77.656760	91.078414
34928		0.564088	0.424096	-0.462193	0.536959	-4.803386	-77.655409	91.043695
34929		0.564168	0.424055	-0.462195	0.536906	-4.783897	-77.651837	91.014121
34930		0.564199	0.424080	-0.462151	0.536891	-4.752247	-77.650139	90.983774
34931		0.564168	0.424175	-0.462021	0.536960	-4.708384	-77.646332	90.958601
34932		0.564186	0.424198	-0.461946	0.536988	-4.680666	-77.640893	90.937172
34933		0.564193	0.424266	-0.461856	0.537004	-4.635787	-77.638780	90.901901
34934		0.564177	0.424347	-0.461756	0.537043	-4.594835	-77.636665	90.874572
34935		0.564157	0.424421	-0.461681	0.537070	-4.562117	-77.636544	90.853083
34936		0.564151	0.424454	-0.461647	0.537080	-4.545972	-77.636375	90.841731
34937		0.564178	0.424443	-0.461648	0.537058	-4.537791	-77.635561	90.830004
34938		0.564211	0.424435	-0.461669	0.537013	-4.528083	-77.637155	90.814158
34939		0.564341	0.424345	-0.461744	0.536883	-4.514982	-77.636475	90.776574
34940		0.564370	0.424355	-0.461735	0.536852	-4.495143	-77.636999	90.754363
34941		0.564408	0.424387	-0.461695	0.536821	-4.457318	-77.636429	90.716759
34942		0.564441	0.424427	-0.461621	0.536818	-4.414608	-77.633141	90.678432
34943		0.564434	0.424548	-0.461504	0.536831	-4.349450	-77.633554	90.628213
34944		0.564458	0.424647	-0.461410	0.536808	-4.281219	-77.634377	90.568410
34945		0.564477	0.424717	-0.461339	0.536794	-4.231683	-77.634491	90.525154
34946		0.564529	0.424755	-0.461302	0.536740	-4.184479	-77.635121	90.476060
34947		0.564607	0.424792	-0.461246	0.536677	-4.123241	-77.633618	90.412115
34948		0.564662	0.424864	-0.461193	0.536608	-4.057386	-77.636090	90.346338
34949		0.564680	0.424976	-0.461091	0.536589	-3.985524	-77.637285	90.284613
34950		0.564734	0.425055	-0.460999	0.536548	-3.912593	-77.636331	90.216046
34951		0.564726	0.425129	-0.460904	0.536580	-3.871647	-77.634056	90.187195
34952		0.564819	0.425123	-0.460892	0.536497	-3.828259	-77.632825	90.133982
34953		0.564927	0.425096	-0.460877	0.536417	-3.786712	-77.629117	90.080856
34954		0.565009	0.425096	-0.460849	0.536355	-3.743953	-77.626694	90.031457
34955		0.564972	0.425192	-0.460709	0.536438	-3.702250	-77.621690	90.010265
34956		0.565018	0.425215	-0.460661	0.536413	-3.663775	-77.619290	89.971716
34957		0.565083	0.425191	-0.460678	0.536348	-3.645027	-77.619073	89.943198
34958		0.565089	0.425209	-0.460687	0.536320	-3.634337	-77.621993	89.931036
34959		0.565053	0.425304	-0.460647	0.536317	-3.603610	-77.627596	89.910019
34960		0.565061	0.425314	-0.460682	0.536271	-3.598874	-77.632487	89.900729
34961		0.565097	0.425286	-0.460725	0.536217	-3.598586	-77.634347	89.891201
34962		0.565146	0.425230	-0.460748	0.536190	-3.603416	-77.631187	89.887043
34963		0.565159	0.425199	-0.460757	0.536194	-3.612892	-77.628851	89.893665
34964		0.565148	0.425209	-0.460743	0.536209	-3.611960	-77.628383	89.895655
34965		0.565125	0.425237	-0.460745	0.536210	-3.610109	-77.631347	89.896664
34966		0.565082	0.425298	-0.460738	0.536213	-3.602149	-77.636858	89.895275
34967		0.565054	0.425300	-0.460761	0.536221	-3.616891	-77.639351	89.910941
34968		0.565024	0.425324	-0.460761	0.536233	-3.620033	-77.641749	89.917890
34969		0.565003	0.425363	-0.460754	0.536231	-3.611599	-77.644955	89.913139
34970		0.564983	0.425389	-0.460751	0.536234	-3.608629	-77.647267	89.913276
34971		0.564919	0.425427	-0.460718	0.536299	-3.618668	-77.647377	89.934835
34972		0.564918	0.425438	-0.460682	0.536322	-3.610183	-77.644683	89.930372
34973		0.564892	0.425465	-0.460652	0.536355	-3.607317	-77.644184	89.934204
34974		0.564875	0.425454	-0.460671	0.536365	-3.622523	-77.644891	89.949256
34975		0.564841	0.425490	-0.460648	0.536393	-3.619885	-77.646002	89.953618
34976		0.564814	0.425522	-0.460657	0.536388	-3.618939	-77.650218	89.955280
34977		0.564749	0.425599	-0.460615	0.536431	-3.610033	-77.653499	89.959409
34978		0.564715	0.425686	-0.460561	0.536444	-3.579924	-77.656799	89.940149
34979		0.564776	0.425690	-0.460591	0.536350	-3.551448	-77.660914	89.901350
34980		0.564733	0.425749	-0.460567	0.536369	-3.542067	-77.664282	89.900336
34981		0.564657	0.425820	-0.460492	0.536458	-3.538335	-77.663300	89.914479
34982		0.564662	0.425851	-0.460424	0.536486	-3.513741	-77.659418	89.896988
34983		0.564549	0.425983	-0.460273	0.536630	-3.490765	-77.656504	89.905144
34984		0.564524	0.426055	-0.460220	0.536645	-3.463683	-77.658435	89.887530
34985		0.564473	0.426117	-0.460188	0.536676	-3.456068	-77.661272	89.890078
34986		0.564451	0.426127	-0.460202	0.536679	-3.463210	-77.663730	89.898453
34987		0.564421	0.426144	-0.460201	0.536698	-3.469824	-77.665179	89.908833
34988		0.564385	0.426178	-0.460158	0.536746	-3.466663	-77.663941	89.915070
34989		0.564354	0.426209	-0.460132	0.536776	-3.464278	-77.664285	89.919483
34990		0.564305	0.426254	-0.460107	0.536813	-3.464633	-77.666146	89.928826
34991		0.564366	0.426231	-0.460120	0.536757	-3.447304	-77.665415	89.902656
34992		0.564362	0.426252	-0.460082	0.536776	-3.434831	-77.663586	89.894902
34993		0.564395	0.426234	-0.460076	0.536762	-3.426845	-77.661230	89.883492
34994		0.564414	0.426225	-0.460071	0.536754	-3.421731	-77.659764	89.876636
34995		0.564413	0.426211	-0.460042	0.536790	-3.425299	-77.655311	89.883160
34996		0.564417	0.426202	-0.460023	0.536810	-3.425929	-77.652275	89.885239
34997		0.564409	0.426172	-0.460013	0.536851	-3.442754	-77.647963	89.903749
34998		0.564375	0.426152	-0.460003	0.536911	-3.467387	-77.644558	89.933224
34999		0.564393	0.426116	-0.459990	0.536932	-3.474540	-77.639438	89.939159
35000		0.564384	0.426096	-0.459972	0.536972	-3.485885	-77.635377	89.953257
35001		0.564405	0.426084	-0.459938	0.536988	-3.477618	-77.630637	89.945996
35002		0.564391	0.426091	-0.459852	0.537071	-3.472102	-77.622081	89.951300
35003		0.564338	0.426126	-0.459742	0.537194	-3.469950	-77.613666	89.967643
35004		0.564298	0.426134	-0.459688	0.537275	-3.479597	-77.608608	89.987805
35005		0.564255	0.426144	-0.459632	0.537360	-3.489818	-77.603385	90.009252
35006		0.564229	0.426136	-0.459604	0.537418	-3.503299	-77.599335	90.028770
35007		0.564191	0.426103	-0.459563	0.537519	-3.532458	-77.591231	90.066300
35008		0.564161	0.426070	-0.459537	0.537599	-3.559563	-77.584786	90.099364
35009		0.564074	0.426075	-0.459477	0.537738	-3.592981	-77.578275	90.149507
35010		0.564032	0.426050	-0.459446	0.537828	-3.621644	-77.572069	90.186122
35011		0.563922	0.426089	-0.459362	0.537983	-3.647157	-77.566634	90.233967
35012		0.563842	0.426140	-0.459272	0.538103	-3.652111	-77.561921	90.258597
35013		0.563778	0.426187	-0.459198	0.538198	-3.653817	-77.558518	90.276425
35014		0.563683	0.426252	-0.459163	0.538275	-3.665236	-77.561175	90.303504
35015		0.563590	0.426276	-0.459141	0.538373	-3.696742	-77.560718	90.348713
35016		0.563525	0.426278	-0.459146	0.538434	-3.727433	-77.561081	90.386531
35017		0.563431	0.426277	-0.459163	0.538519	-3.775147	-77.562074	90.443495
35018		0.563347	0.426274	-0.459170	0.538603	-3.817545	-77.561859	90.495021
35019		0.563306	0.426239	-0.459209	0.538640	-3.857809	-77.561981	90.535465
35020		0.563177	0.426276	-0.459224	0.538733	-3.904169	-77.566691	90.595901
35021		0.563028	0.426331	-0.459169	0.538892	-3.944626	-77.565664	90.660523
35022		0.562871	0.426403	-0.459140	0.539024	-3.983873	-77.569044	90.722214
35023		0.562767	0.426427	-0.459163	0.539095	-4.025607	-77.573294	90.774187
35024		0.562628	0.426463	-0.459187	0.539191	-4.078776	-77.578732	90.841532
35025		0.562536	0.426466	-0.459242	0.539237	-4.127652	-77.584214	90.895452
35026		0.562444	0.426472	-0.459291	0.539286	-4.174892	-77.589378	90.948309
35027		0.562304	0.426528	-0.459275	0.539401	-4.214362	-77.592636	91.006661
35028		0.562173	0.426532	-0.459313	0.539503	-4.280138	-77.596060	91.083949
35029		0.562022	0.426568	-0.459337	0.539612	-4.339475	-77.601221	91.158992
35030		0.561845	0.426637	-0.459339	0.539740	-4.393514	-77.607462	91.234481
35031		0.561632	0.426702	-0.459343	0.539907	-4.466691	-77.613159	91.333002
35032		0.561449	0.426750	-0.459384	0.540024	-4.537625	-77.621180	91.421703
35033		0.561274	0.426776	-0.459424	0.540152	-4.615073	-77.626737	91.515828
35034		0.561170	0.426746	-0.459506	0.540214	-4.688524	-77.631326	91.592435
35035		0.561132	0.426702	-0.459576	0.540228	-4.735526	-77.633647	91.635899
35036		0.561040	0.426707	-0.459619	0.540283	-4.782788	-77.637960	91.689393
35037		0.560865	0.426778	-0.459592	0.540431	-4.831169	-77.641262	91.762114
35038		0.560739	0.426847	-0.459566	0.540531	-4.857843	-77.644822	91.807268
35039		0.560565	0.426927	-0.459502	0.540702	-4.897612	-77.645224	91.875249
35040		0.560436	0.426984	-0.459443	0.540840	-4.926019	-77.644066	91.925757
35041		0.560393	0.426945	-0.459452	0.540908	-4.965790	-77.640411	91.969114
35042		0.560329	0.426943	-0.459421	0.541002	-4.993542	-77.636287	92.007628
35043		0.560285	0.426917	-0.459426	0.541064	-5.027512	-77.633541	92.045876
35044		0.560222	0.426932	-0.459396	0.541143	-5.046893	-77.631456	92.076104
35045		0.560209	0.426935	-0.459373	0.541173	-5.049252	-77.629247	92.082367
35046		0.560157	0.426988	-0.459328	0.541223	-5.044647	-77.629799	92.089276
35047		0.560122	0.427025	-0.459251	0.541296	-5.035476	-77.625326	92.092933
35048		0.560100	0.427106	-0.459127	0.541360	-4.993936	-77.620891	92.068204
35049		0.560072	0.427184	-0.458987	0.541446	-4.954606	-77.614308	92.047999
35050		0.560076	0.427240	-0.458880	0.541488	-4.914206	-77.609215	92.019137
35051		0.560139	0.427260	-0.458804	0.541472	-4.866066	-77.603864	91.971949
35052		0.560139	0.427307	-0.458782	0.541454	-4.841895	-77.606687	91.950797
35053		0.560157	0.427325	-0.458767	0.541433	-4.823185	-77.607184	91.931685
35054		0.560197	0.427334	-0.458718	0.541426	-4.793918	-77.603428	91.902989
35055		0.560264	0.427316	-0.458679	0.541404	-4.765055	-77.597944	91.870225
35056		0.560246	0.427380	-0.458596	0.541443	-4.734837	-77.595946	91.851825
35057		0.560138	0.427496	-0.458460	0.541577	-4.717351	-77.593275	91.862760
35058		0.560139	0.427522	-0.458407	0.541602	-4.698811	-77.590479	91.850174
35059		0.560184	0.427496	-0.458385	0.541594	-4.686166	-77.585721	91.834182
35060		0.560263	0.427467	-0.458404	0.541519	-4.664083	-77.585159	91.800495
35061		0.560273	0.427479	-0.458403	0.541500	-4.653420	-77.586521	91.788883
35062		0.560299	0.427459	-0.458435	0.541462	-4.654235	-77.587972	91.782977
35063		0.560316	0.427456	-0.458419	0.541461	-4.645608	-77.586013	91.774051
35064		0.560302	0.427499	-0.458353	0.541497	-4.624353	-77.583629	91.762040
35065		0.560234	0.427618	-0.458230	0.541577	-4.588304	-77.583003	91.748421
35066		0.560191	0.427699	-0.458149	0.541626	-4.562654	-77.582874	91.737382
35067		0.560137	0.427746	-0.458120	0.541670	-4.563695	-77.584454	91.748551
35068		0.560167	0.427748	-0.458132	0.541626	-4.549470	-77.586229	91.729492
35069		0.560180	0.427723	-0.458176	0.541596	-4.559950	-77.588230	91.733453
35070		0.560227	0.427660	-0.458196	0.541580	-4.568605	-77.583899	91.733742
35071		0.560322	0.427587	-0.458253	0.541491	-4.563008	-77.582838	91.710038
35072		0.560331	0.427576	-0.458257	0.541487	-4.564461	-77.582137	91.709870
35073		0.560332	0.427579	-0.458235	0.541502	-4.559910	-77.580091	91.707495
35074		0.560335	0.427595	-0.458196	0.541519	-4.546427	-77.577810	91.698079
35075		0.560306	0.427657	-0.458125	0.541561	-4.523633	-77.576771	91.687046
35076		0.560324	0.427671	-0.458069	0.541578	-4.501842	-77.572544	91.669135
35077		0.560332	0.427681	-0.458045	0.541582	-4.490661	-77.571096	91.659714
35078		0.560358	0.427659	-0.458066	0.541555	-4.490379	-77.571116	91.653920
35079		0.560360	0.427648	-0.458071	0.541557	-4.495179	-77.570528	91.657832
35080		0.560355	0.427629	-0.458088	0.541563	-4.508321	-77.570158	91.669458
35081		0.560418	0.427587	-0.458093	0.541527	-4.498075	-77.566629	91.650789
35082		0.560393	0.427613	-0.458054	0.541566	-4.493561	-77.565093	91.653731
35083		0.560394	0.427623	-0.458022	0.541584	-4.484469	-77.562861	91.648008
35084		0.560393	0.427635	-0.457998	0.541596	-4.477108	-77.561574	91.643513
35085		0.560409	0.427596	-0.458011	0.541599	-4.488384	-77.558886	91.651029
35086		0.560407	0.427608	-0.457993	0.541606	-4.481565	-77.558311	91.646471
35087		0.560419	0.427596	-0.457982	0.541612	-4.479707	-77.555985	91.644162
35088		0.560429	0.427602	-0.457975	0.541604	-4.471737	-77.555890	91.635858
35089		0.560488	0.427547	-0.458040	0.541532	-4.476546	-77.557242	91.626282
35090		0.560479	0.427522	-0.458072	0.541533	-4.495771	-77.557866	91.642781
35091		0.560430	0.427558	-0.458037	0.541585	-4.498536	-77.557723	91.655495
35092		0.560395	0.427577	-0.458058	0.541588	-4.508891	-77.561746	91.667882
35093		0.560368	0.427559	-0.458084	0.541610	-4.533875	-77.562179	91.693167
35094		0.560331	0.427545	-0.458134	0.541616	-4.563684	-77.565682	91.721829
35095		0.560299	0.427559	-0.458130	0.541640	-4.571766	-77.566641	91.734116
35096		0.560301	0.427556	-0.458166	0.541612	-4.577053	-77.569968	91.735461
35097		0.560292	0.427536	-0.458199	0.541607	-4.593796	-77.571355	91.749387
35098		0.560263	0.427534	-0.458225	0.541618	-4.611998	-77.573570	91.768245
35099		0.560262	0.427531	-0.458245	0.541604	-4.616133	-77.575352	91.770284
35100		0.560212	0.427576	-0.458227	0.541636	-4.617779	-77.577834	91.780354
35101		0.560099	0.427639	-0.458181	0.541742	-4.637907	-77.578951	91.819335
35102		0.560045	0.427652	-0.458204	0.541767	-4.660107	-77.582331	91.845574
35103		0.559967	0.427680	-0.458213	0.541818	-4.685902	-77.585676	91.879896
35104		0.559924	0.427671	-0.458264	0.541827	-4.716971	-77.589626	91.910517
35105		0.559816	0.427700	-0.458261	0.541918	-4.755473	-77.591630	91.962352
35106		0.559786	0.427656	-0.458330	0.541926	-4.798206	-77.593815	92.000672
35107		0.559779	0.427586	-0.458422	0.541911	-4.844446	-77.595819	92.037259
35108		0.559763	0.427525	-0.458510	0.541901	-4.890486	-77.598284	92.074998
35109		0.559781	0.427485	-0.458561	0.541871	-4.906238	-77.599474	92.082713
35110		0.559735	0.427510	-0.458565	0.541895	-4.917422	-77.602275	92.099139
35111		0.559683	0.427513	-0.458575	0.541937	-4.942088	-77.603186	92.128858
35112		0.559663	0.427514	-0.458603	0.541934	-4.954837	-77.606051	92.140968
35113		0.559635	0.427503	-0.458666	0.541918	-4.981067	-77.611229	92.163750
35114		0.559592	0.427511	-0.458717	0.541912	-5.003992	-77.617198	92.186312
35115		0.559609	0.427466	-0.458774	0.541883	-5.023562	-77.618364	92.197347
35116		0.559607	0.427437	-0.458805	0.541882	-5.041789	-77.618472	92.212164
35117		0.559602	0.427415	-0.458862	0.541856	-5.060841	-77.621933	92.225475
35118		0.559579	0.427429	-0.458912	0.541827	-5.072040	-77.628548	92.234308
35119		0.559555	0.427482	-0.458877	0.541839	-5.055078	-77.630470	92.224380
35120		0.559542	0.427521	-0.458867	0.541830	-5.042781	-77.633610	92.215223
35121		0.559559	0.427519	-0.458902	0.541785	-5.039534	-77.637170	92.206270
35122		0.559553	0.427546	-0.458918	0.541756	-5.032222	-77.641781	92.198296
35123		0.559577	0.427540	-0.458965	0.541695	-5.029280	-77.646388	92.187417
35124		0.559598	0.427541	-0.458987	0.541655	-5.021791	-77.648928	92.175193
35125		0.559639	0.427525	-0.459006	0.541609	-5.011243	-77.649613	92.157599
35126		0.559659	0.427529	-0.459058	0.541541	-5.006575	-77.655713	92.145177
35127		0.559696	0.427565	-0.459101	0.541438	-4.977538	-77.664555	92.107698
35128		0.559684	0.427615	-0.459118	0.541396	-4.962966	-77.671688	92.093236
35129		0.559650	0.427673	-0.459108	0.541394	-4.951870	-77.676640	92.087943
35130		0.559675	0.427674	-0.459171	0.541314	-4.947112	-77.683693	92.073528
35131		0.559664	0.427699	-0.459221	0.541263	-4.947231	-77.691643	92.069915
35132		0.559696	0.427695	-0.459278	0.541185	-4.940741	-77.697513	92.053682
35133		0.559801	0.427643	-0.459380	0.541031	-4.926308	-77.703544	92.015425
35134		0.559842	0.427641	-0.459433	0.540945	-4.913570	-77.709378	91.992242
35135		0.559856	0.427651	-0.459455	0.540904	-4.904699	-77.712848	91.979474
35136		0.559888	0.427689	-0.459468	0.540829	-4.873498	-77.718739	91.943606
35137		0.559891	0.427762	-0.459446	0.540787	-4.836195	-77.724339	91.909156
35138		0.559894	0.427835	-0.459433	0.540737	-4.799501	-77.731059	91.874367
35139		0.559918	0.427897	-0.459411	0.540682	-4.757060	-77.735624	91.832163
35140		0.559969	0.427940	-0.459417	0.540590	-4.713256	-77.741416	91.782296
35141		0.560044	0.427918	-0.459510	0.540452	-4.698485	-77.749385	91.748727
35142		0.560093	0.427922	-0.459589	0.540330	-4.682076	-77.758720	91.718155
35143		0.560037	0.427984	-0.459580	0.540347	-4.679899	-77.764093	91.724258
35144		0.560061	0.428011	-0.459612	0.540274	-4.659740	-77.770514	91.698240
35145		0.560036	0.428081	-0.459617	0.540239	-4.639920	-77.778498	91.681645
35146		0.560052	0.428122	-0.459641	0.540171	-4.616374	-77.785576	91.654228
35147		0.560126	0.428119	-0.459702	0.540043	-4.588556	-77.792491	91.611060
35148		0.560151	0.428144	-0.459722	0.539981	-4.567200	-77.797479	91.585052
35149		0.560254	0.428118	-0.459782	0.539844	-4.536202	-77.801895	91.535297
35150		0.560285	0.428115	-0.459844	0.539761	-4.529928	-77.808451	91.518675
35151		0.560272	0.428136	-0.459857	0.539746	-4.528205	-77.811972	91.517319
35152		0.560267	0.428137	-0.459899	0.539715	-4.535229	-77.816471	91.520496
35153		0.560272	0.428120	-0.459945	0.539684	-4.545928	-77.819486	91.525497
35154		0.560250	0.428130	-0.459964	0.539682	-4.554265	-77.822552	91.534484
35155		0.560275	0.428108	-0.459948	0.539688	-4.550707	-77.818598	91.529481
35156		0.560283	0.428121	-0.459915	0.539698	-4.536416	-77.816548	91.517969
35157		0.560279	0.428137	-0.459871	0.539727	-4.525920	-77.813508	91.512785
35158		0.560306	0.428112	-0.459867	0.539722	-4.523379	-77.810661	91.507152
35159		0.560303	0.428080	-0.459850	0.539766	-4.538306	-77.805294	91.523940
35160		0.560308	0.428042	-0.459844	0.539795	-4.552341	-77.800681	91.537494
35161		0.560251	0.428066	-0.459792	0.539879	-4.563097	-77.797224	91.560733
35162		0.560157	0.428108	-0.459720	0.540005	-4.581214	-77.793411	91.598101
35163		0.560051	0.428146	-0.459635	0.540158	-4.605072	-77.787555	91.644002
35164		0.560017	0.428086	-0.459592	0.540277	-4.644295	-77.776255	91.690982
35165		0.560059	0.427937	-0.459607	0.540338	-4.693847	-77.762022	91.732114
35166		0.560122	0.427810	-0.459641	0.540345	-4.725993	-77.752242	91.751766
35167		0.560157	0.427687	-0.459630	0.540415	-4.763748	-77.738041	91.785127
35168		0.560232	0.427551	-0.459656	0.540423	-4.792956	-77.726600	91.801061
35169		0.560301	0.427430	-0.459660	0.540443	-4.815073	-77.714519	91.813125
35170		0.560321	0.427334	-0.459624	0.540529	-4.844619	-77.700378	91.842980
35171		0.560298	0.427302	-0.459554	0.540637	-4.862142	-77.689354	91.870208
35172		0.560274	0.427286	-0.459459	0.540756	-4.869525	-77.677292	91.890343
35173		0.560272	0.427204	-0.459401	0.540872	-4.900419	-77.662212	91.926556
35174		0.560307	0.427108	-0.459373	0.540935	-4.923522	-77.648974	91.947370
35175		0.560365	0.426933	-0.459402	0.540989	-4.978491	-77.633503	91.990282
35176		0.560463	0.426703	-0.459479	0.541004	-5.045040	-77.617421	92.034335
35177		0.560540	0.426520	-0.459488	0.541061	-5.091525	-77.599123	92.068497
35178		0.560617	0.426335	-0.459503	0.541114	-5.139635	-77.581184	92.103700
35179		0.560763	0.426112	-0.459544	0.541104	-5.174891	-77.562471	92.114582
35180		0.560840	0.425971	-0.459533	0.541144	-5.200153	-77.546709	92.130205
35181		0.560934	0.425851	-0.459518	0.541154	-5.206980	-77.532889	92.126066
35182		0.561037	0.425721	-0.459533	0.541136	-5.217194	-77.521316	92.120917
35183		0.561260	0.425520	-0.459620	0.540988	-5.211523	-77.510723	92.077243
35184		0.561404	0.425391	-0.459629	0.540933	-5.201689	-77.498841	92.047954
35185		0.561616	0.425211	-0.459649	0.540838	-5.183485	-77.483412	92.000453
35186		0.561803	0.425072	-0.459659	0.540745	-5.158155	-77.471011	91.950289
35187		0.561961	0.424936	-0.459703	0.540650	-5.149054	-77.462372	91.916277
35188		0.562103	0.424810	-0.459742	0.540568	-5.142254	-77.454036	91.886999
35189		0.562233	0.424710	-0.459739	0.540515	-5.125200	-77.444046	91.853797
35190		0.562357	0.424619	-0.459723	0.540470	-5.104792	-77.433675	91.819206
35191		0.562452	0.424567	-0.459676	0.540452	-5.077071	-77.423947	91.784677
35192		0.562595	0.424504	-0.459697	0.540336	-5.040242	-77.420544	91.728117
35193		0.562716	0.424478	-0.459713	0.540215	-4.996074	-77.420665	91.667541
35194		0.562879	0.424412	-0.459753	0.540064	-4.953184	-77.419112	91.600419
35195		0.563087	0.424285	-0.459834	0.539877	-4.920981	-77.415930	91.533450
35196		0.563282	0.424145	-0.459922	0.539709	-4.901184	-77.411774	91.479587
35197		0.563445	0.424013	-0.459990	0.539585	-4.891527	-77.406120	91.441814
35198		0.563572	0.423903	-0.460108	0.539438	-4.894402	-77.407948	91.415751
35199		0.563642	0.423810	-0.460212	0.539349	-4.914934	-77.409441	91.415703
35200		0.563718	0.423724	-0.460315	0.539250	-4.929473	-77.411765	91.409272
35201		0.563872	0.423566	-0.460424	0.539119	-4.939597	-77.407635	91.387574
35202		0.563978	0.423442	-0.460528	0.539017	-4.957444	-77.406254	91.380303
35203		0.564100	0.423307	-0.460639	0.538901	-4.972593	-77.404485	91.367513
35204		0.564160	0.423227	-0.460683	0.538863	-4.985065	-77.401103	91.367137
35205		0.564199	0.423171	-0.460745	0.538813	-4.998933	-77.401935	91.369072
35206		0.564195	0.423150	-0.460750	0.538830	-5.010943	-77.400107	91.380766
35207		0.564162	0.423133	-0.460741	0.538886	-5.033037	-77.397031	91.407588
35208		0.564091	0.423114	-0.460784	0.538938	-5.080290	-77.398937	91.458274
35209		0.563996	0.423094	-0.460812	0.539029	-5.137189	-77.398764	91.523201
35210		0.563903	0.423086	-0.460810	0.539134	-5.184511	-77.396837	91.581567
35211		0.563861	0.422999	-0.460873	0.539192	-5.250848	-77.393713	91.645032
35212		0.563814	0.422944	-0.460901	0.539260	-5.300780	-77.390200	91.696760
35213		0.563812	0.422817	-0.460947	0.539322	-5.363024	-77.381261	91.752715
35214		0.563767	0.422759	-0.460945	0.539418	-5.410064	-77.374165	91.804576
35215		0.563722	0.422681	-0.460971	0.539503	-5.468424	-77.368029	91.864450
35216		0.563622	0.422643	-0.460980	0.539630	-5.534214	-77.363771	91.940611
35217		0.563468	0.422629	-0.460961	0.539819	-5.610407	-77.358600	92.036879
35218		0.563360	0.422596	-0.460989	0.539933	-5.679000	-77.356900	92.114726
35219		0.563234	0.422575	-0.461003	0.540068	-5.749207	-77.354720	92.197940
35220		0.563116	0.422521	-0.461035	0.540207	-5.831941	-77.350907	92.290553
35221		0.563075	0.422401	-0.461096	0.540291	-5.911237	-77.343767	92.366615
35222		0.563021	0.422338	-0.461079	0.540411	-5.962164	-77.334425	92.424886
35223		0.562985	0.422317	-0.461019	0.540515	-5.980173	-77.325460	92.453141
35224		0.562945	0.422323	-0.460948	0.540614	-5.987382	-77.318047	92.472754
35225		0.562885	0.422406	-0.460810	0.540729	-5.962032	-77.311967	92.470321
35226		0.562818	0.422525	-0.460659	0.540834	-5.922642	-77.308287	92.456352
35227		0.562806	0.422645	-0.460516	0.540874	-5.858143	-77.306306	92.410062
35228		0.562747	0.422819	-0.460310	0.540975	-5.784484	-77.302915	92.367505
35229		0.562602	0.423108	-0.460031	0.541138	-5.691656	-77.303576	92.325178
35230		0.562501	0.423329	-0.459831	0.541240	-5.617971	-77.305500	92.287533
35231		0.562397	0.423539	-0.459634	0.541351	-5.550310	-77.306711	92.255765
35232		0.562326	0.423695	-0.459455	0.541455	-5.493291	-77.304039	92.228067
35233		0.562238	0.423844	-0.459277	0.541580	-5.447011	-77.300733	92.212971
35234		0.562216	0.423945	-0.459160	0.541624	-5.399146	-77.299141	92.181455
35235		0.562233	0.424014	-0.459061	0.541636	-5.348340	-77.296423	92.140080
35236		0.562254	0.424104	-0.458940	0.541647	-5.284521	-77.293608	92.087838
35237		0.562322	0.424122	-0.458841	0.541645	-5.232422	-77.285822	92.038410
35238		0.562359	0.424229	-0.458722	0.541624	-5.153969	-77.285267	91.969612
35239		0.562378	0.424345	-0.458621	0.541598	-5.081618	-77.287400	91.907254
35240		0.562377	0.424461	-0.458524	0.541591	-5.019656	-77.289699	91.857210
35241		0.562430	0.424511	-0.458484	0.541530	-4.967641	-77.291440	91.803853
35242		0.562401	0.424613	-0.458443	0.541515	-4.931293	-77.297891	91.776578
35243		0.562372	0.424706	-0.458381	0.541525	-4.896365	-77.301215	91.752781
35244		0.562368	0.424773	-0.458330	0.541521	-4.863166	-77.302999	91.726416
35245		0.562417	0.424781	-0.458349	0.541446	-4.838251	-77.306413	91.693731
35246		0.562400	0.424857	-0.458305	0.541441	-4.807794	-77.309845	91.670883
35247		0.562332	0.424968	-0.458207	0.541508	-4.778719	-77.310919	91.661721
35248		0.562290	0.425060	-0.458160	0.541519	-4.752181	-77.315516	91.646172
35249		0.562273	0.425141	-0.458104	0.541521	-4.717801	-77.318217	91.620827
