header=PacketCounter SampleTimeFine Quat_q0 Quat_q1 Quat_q2 Quat_q3 Roll Pitch Yaw
version=1
nRows=5331
nColumns=9
inDegrees=no
endheader
50856		0.598050	-0.391474	0.342981	-0.609466	-62.661000	-3.838258	-88.746242
50857		0.597808	-0.391983	0.341428	-0.610247	-62.568419	-4.025285	-88.733343
50858		0.597650	-0.392538	0.339744	-0.610986	-62.468917	-4.219320	-88.704813
50859		0.597496	-0.393129	0.338050	-0.611694	-62.372632	-4.415161	-88.672101
50860		0.597336	-0.393769	0.336415	-0.612340	-62.286838	-4.607820	-88.635951
50861		0.597182	-0.394451	0.334838	-0.612916	-62.210976	-4.796169	-88.594859
50862		0.596984	-0.395196	0.333349	-0.613440	-62.149773	-4.982435	-88.554042
50863		0.596735	-0.395884	0.332055	-0.613940	-62.100640	-5.152121	-88.525137
50864		0.596365	-0.396571	0.331059	-0.614394	-62.078156	-5.303836	-88.512966
50865		0.595898	-0.397318	0.330325	-0.614760	-62.085332	-5.441557	-88.508487
50866		0.595423	-0.398045	0.329762	-0.615052	-62.105902	-5.563089	-88.506796
50867		0.595015	-0.398651	0.329249	-0.615329	-62.119356	-5.669327	-88.506809
50868		0.594670	-0.399204	0.328842	-0.615521	-62.137221	-5.758294	-88.502973
50869		0.594340	-0.399609	0.328528	-0.615746	-62.148417	-5.831351	-88.510818
50870		0.594091	-0.399877	0.328289	-0.615939	-62.153026	-5.885046	-88.520050
50871		0.593881	-0.400062	0.328094	-0.616125	-62.153296	-5.928010	-88.531636
50872		0.593698	-0.400142	0.327988	-0.616306	-62.150983	-5.956153	-88.549176
50873		0.593504	-0.400143	0.328005	-0.616483	-62.151846	-5.970643	-88.575617
50874		0.593324	-0.400068	0.328123	-0.616642	-62.153967	-5.971354	-88.607145
50875		0.593114	-0.399943	0.328396	-0.616780	-62.165005	-5.958072	-88.647399
50876		0.592908	-0.399797	0.328821	-0.616846	-62.187811	-5.929517	-88.689140
50877		0.592717	-0.399646	0.329299	-0.616873	-62.214935	-5.894678	-88.729268
50878		0.592584	-0.399507	0.329781	-0.616833	-62.244012	-5.855106	-88.760252
50879		0.592498	-0.399367	0.330306	-0.616725	-62.277057	-5.807564	-88.784956
50880		0.592434	-0.399228	0.330887	-0.616565	-62.315508	-5.753113	-88.806574
50881		0.592378	-0.399098	0.331500	-0.616374	-62.357860	-5.695446	-88.826272
50882		0.592383	-0.398935	0.332080	-0.616163	-62.394114	-5.634410	-88.840808
50883		0.592434	-0.398706	0.332671	-0.615942	-62.425079	-5.565766	-88.854897
50884		0.592517	-0.398445	0.333247	-0.615720	-62.451414	-5.494598	-88.867678
50885		0.592625	-0.398111	0.333821	-0.615521	-62.470344	-5.418487	-88.883728
50886		0.592744	-0.397755	0.334434	-0.615304	-62.490806	-5.336933	-88.900229
50887		0.592882	-0.397427	0.335083	-0.615031	-62.517318	-5.251660	-88.911745
50888		0.593007	-0.396961	0.335812	-0.614813	-62.537450	-5.154187	-88.937351
50889		0.593153	-0.396347	0.336592	-0.614641	-62.547391	-5.044015	-88.973601
50890		0.593343	-0.395745	0.337392	-0.614408	-62.560664	-4.928893	-89.002778
50891		0.593622	-0.395031	0.338157	-0.614177	-62.560003	-4.804872	-89.029784
50892		0.593891	-0.394172	0.338984	-0.614013	-62.550488	-4.669836	-89.071217
50893		0.594285	-0.393135	0.339722	-0.613888	-62.515616	-4.525261	-89.111398
50894		0.594752	-0.391914	0.340437	-0.613821	-62.460753	-4.368926	-89.158015
50895		0.595320	-0.390521	0.341121	-0.613778	-62.386569	-4.199784	-89.205642
50896		0.595971	-0.389136	0.341765	-0.613668	-62.310045	-4.027559	-89.240851
50897		0.596751	-0.387669	0.342300	-0.613540	-62.215933	-3.851202	-89.265035
50898		0.597652	-0.386039	0.342757	-0.613436	-62.099375	-3.664882	-89.286432
50899		0.598571	-0.384393	0.343309	-0.613264	-61.990263	-3.467255	-89.305975
50900		0.599582	-0.382732	0.343830	-0.613024	-61.877441	-3.264158	-89.313309
50901		0.600696	-0.380918	0.344245	-0.612830	-61.740475	-3.055473	-89.319027
50902		0.601890	-0.379049	0.344625	-0.612604	-61.595311	-2.840798	-89.317362
50903		0.603211	-0.377224	0.344803	-0.612332	-61.436474	-2.636188	-89.293220
50904		0.604621	-0.375373	0.344839	-0.612057	-61.262570	-2.436176	-89.257669
50905		0.606045	-0.373475	0.344841	-0.611809	-61.081145	-2.235828	-89.223098
50906		0.607451	-0.371518	0.344800	-0.611629	-60.890407	-2.038134	-89.194764
50907		0.608810	-0.369478	0.344727	-0.611555	-60.688875	-1.843283	-89.178678
50908		0.610038	-0.367355	0.344721	-0.611614	-60.485761	-1.648822	-89.186472
50909		0.611157	-0.365025	0.344754	-0.611873	-60.266825	-1.449726	-89.225588
50910		0.612166	-0.362487	0.344861	-0.612313	-60.035388	-1.242626	-89.295788
50911		0.613022	-0.359911	0.345146	-0.612814	-59.817434	-1.028675	-89.388810
50912		0.613792	-0.357223	0.345574	-0.613376	-59.602920	-0.802298	-89.501625
50913		0.614477	-0.354402	0.346152	-0.613999	-59.390818	-0.561506	-89.635205
50914		0.615058	-0.351484	0.346903	-0.614671	-59.186775	-0.307286	-89.789447
50915		0.615609	-0.348551	0.347692	-0.615344	-58.986145	-0.050018	-89.946990
50916		0.616179	-0.345629	0.348474	-0.615979	-58.787289	0.208773	-90.099090
50917		0.616692	-0.342721	0.349359	-0.616589	-58.600713	0.473171	-90.256013
50918		0.617209	-0.339900	0.350231	-0.617138	-58.422275	0.733452	-90.403521
50919		0.617756	-0.337297	0.351009	-0.617576	-58.256153	0.977678	-90.528137
50920		0.618321	-0.334857	0.351706	-0.617943	-58.098201	1.208416	-90.636154
50921		0.618877	-0.332462	0.352380	-0.618295	-57.943147	1.434865	-90.740544
50922		0.619423	-0.330163	0.353043	-0.618602	-57.796457	1.655342	-90.837848
50923		0.619997	-0.328101	0.353657	-0.618774	-57.667245	1.861974	-90.911989
50924		0.620595	-0.326186	0.354273	-0.618834	-57.551932	2.063707	-90.970667
50925		0.621179	-0.324363	0.354948	-0.618819	-57.450962	2.265406	-91.023529
50926		0.621769	-0.322704	0.355623	-0.618706	-57.364962	2.459500	-91.062753
50927		0.622334	-0.321272	0.356318	-0.618484	-57.301578	2.641995	-91.088105
50928		0.622863	-0.319995	0.357027	-0.618204	-57.253612	2.815146	-91.106561
50929		0.623324	-0.318814	0.357761	-0.617925	-57.216802	2.980529	-91.127458
50930		0.623720	-0.317784	0.358484	-0.617638	-57.192740	3.131941	-91.146213
50931		0.624045	-0.316907	0.359187	-0.617352	-57.180651	3.268277	-91.163750
50932		0.624264	-0.316085	0.359921	-0.617124	-57.176945	3.396435	-91.192209
50933		0.624384	-0.315355	0.360656	-0.616946	-57.181780	3.512224	-91.227990
50934		0.624451	-0.314791	0.361329	-0.616773	-57.195714	3.609456	-91.259363
50935		0.624422	-0.314343	0.362028	-0.616621	-57.222808	3.695560	-91.296062
50936		0.624277	-0.314017	0.362751	-0.616509	-57.263263	3.768441	-91.340518
50937		0.624066	-0.313817	0.363465	-0.616403	-57.314385	3.828908	-91.385230
50938		0.623800	-0.313708	0.364167	-0.616314	-57.372550	3.878934	-91.431354
50939		0.623468	-0.313689	0.364865	-0.616248	-57.438505	3.918847	-91.480432
50940		0.623096	-0.313695	0.365584	-0.616194	-57.508990	3.956131	-91.533296
50941		0.622688	-0.313798	0.366257	-0.616154	-57.583701	3.981335	-91.584236
50942		0.622267	-0.313965	0.366940	-0.616088	-57.665113	4.002969	-91.632478
50943		0.621798	-0.314207	0.367638	-0.616023	-57.754723	4.018326	-91.682144
50944		0.621303	-0.314513	0.368365	-0.615931	-57.853009	4.030955	-91.730784
50945		0.620798	-0.314895	0.369063	-0.615828	-57.955047	4.036085	-91.775288
50946		0.620246	-0.315391	0.369783	-0.615698	-58.069612	4.033591	-91.818037
50947		0.619657	-0.315929	0.370483	-0.615594	-58.186102	4.024163	-91.862888
50948		0.619053	-0.316510	0.371157	-0.615498	-58.303953	4.008796	-91.906700
50949		0.618445	-0.317210	0.371740	-0.615396	-58.423539	3.978517	-91.942031
50950		0.617759	-0.317950	0.372392	-0.615310	-58.553553	3.946267	-91.985470
50951		0.616971	-0.318718	0.373096	-0.615276	-58.691542	3.909371	-92.040963
50952		0.616094	-0.319523	0.373834	-0.615290	-58.836284	3.866712	-92.106097
50953		0.615121	-0.320225	0.374603	-0.615430	-58.975474	3.824461	-92.192005
50954		0.614022	-0.320847	0.375463	-0.615679	-59.116890	3.784732	-92.301348
50955		0.612831	-0.321496	0.376372	-0.615972	-59.265700	3.740653	-92.421251
50956		0.611583	-0.322122	0.377269	-0.616338	-59.411598	3.691882	-92.550567
50957		0.610252	-0.322584	0.378198	-0.616846	-59.546507	3.647778	-92.703057
50958		0.608832	-0.322878	0.379192	-0.617484	-59.673403	3.611112	-92.880097
50959		0.607412	-0.323143	0.380168	-0.618143	-59.796084	3.574112	-93.058890
50960		0.605994	-0.323424	0.381108	-0.618810	-59.916584	3.532893	-93.235766
50961		0.604560	-0.323610	0.382062	-0.619526	-60.030393	3.496616	-93.421315
50962		0.603118	-0.323709	0.383058	-0.620264	-60.140819	3.467828	-93.614155
50963		0.601740	-0.323869	0.383980	-0.620949	-60.249245	3.434079	-93.793139
50964		0.600440	-0.324039	0.384786	-0.621619	-60.346998	3.395243	-93.960106
50965		0.599174	-0.324042	0.385624	-0.622320	-60.433287	3.370752	-94.134576
50966		0.597937	-0.324016	0.386472	-0.622997	-60.518153	3.350826	-94.306895
50967		0.596808	-0.324043	0.387249	-0.623582	-60.600346	3.330293	-94.460062
50968		0.595752	-0.324104	0.387982	-0.624105	-60.681100	3.309645	-94.600445
50969		0.594757	-0.324115	0.388694	-0.624604	-60.755359	3.294649	-94.735886
50970		0.593807	-0.324162	0.389394	-0.625047	-60.831426	3.280023	-94.862364
50971		0.592954	-0.324168	0.390000	-0.625476	-60.894413	3.266788	-94.978482
50972		0.592226	-0.324124	0.390502	-0.625875	-60.942491	3.256671	-95.081146
50973		0.591630	-0.324179	0.390805	-0.626222	-60.978920	3.233684	-95.158351
50974		0.591217	-0.324361	0.390836	-0.626498	-60.998789	3.193831	-95.200784
50975		0.590943	-0.324571	0.390585	-0.626804	-60.992715	3.138053	-95.222122
50976		0.590830	-0.324764	0.390078	-0.627126	-60.959139	3.072743	-95.222645
50977		0.590827	-0.325068	0.389350	-0.627423	-60.913048	2.990264	-95.199885
50978		0.590920	-0.325401	0.388401	-0.627752	-60.847287	2.893818	-95.161854
50979		0.591090	-0.325704	0.387308	-0.628109	-60.764619	2.792094	-95.115480
50980		0.591331	-0.326044	0.386128	-0.628434	-60.676554	2.686124	-95.056841
50981		0.591676	-0.326406	0.384855	-0.628702	-60.581164	2.578867	-94.982203
50982		0.592111	-0.326937	0.383572	-0.628800	-60.499799	2.468949	-94.882554
50983		0.592716	-0.327720	0.382225	-0.628643	-60.434150	2.353428	-94.740635
50984		0.593519	-0.328750	0.380790	-0.628218	-60.381680	2.232791	-94.552855
50985		0.594493	-0.329998	0.379294	-0.627547	-60.342780	2.108711	-94.324778
50986		0.595563	-0.331526	0.377702	-0.626687	-60.319958	1.969392	-94.061784
50987		0.596697	-0.333419	0.376001	-0.625626	-60.319961	1.806578	-93.761328
50988		0.597851	-0.335553	0.374156	-0.624489	-60.328850	1.620582	-93.438778
50989		0.598916	-0.337633	0.372263	-0.623477	-60.330177	1.426597	-93.131255
50990		0.599875	-0.339521	0.370327	-0.622683	-60.311662	1.230336	-92.852396
50991		0.600732	-0.341201	0.368324	-0.622126	-60.269594	1.030718	-92.602915
50992		0.601483	-0.342715	0.366352	-0.621732	-60.216933	0.834033	-92.380352
50993		0.602059	-0.343951	0.364603	-0.621520	-60.161448	0.657827	-92.203463
50994		0.602501	-0.344934	0.363031	-0.621467	-60.100734	0.499786	-92.064615
50995		0.602907	-0.345903	0.361509	-0.621422	-60.044084	0.344296	-91.931747
50996		0.603322	-0.347064	0.359972	-0.621265	-60.004198	0.178769	-91.782164
50997		0.603746	-0.348322	0.358446	-0.621030	-59.975062	0.010522	-91.623062
50998		0.604139	-0.349460	0.357005	-0.620839	-59.943630	-0.146451	-91.477680
50999		0.604481	-0.350554	0.355653	-0.620665	-59.917135	-0.296934	-91.342462
51000		0.604757	-0.351676	0.354407	-0.620475	-59.903754	-0.444200	-91.213980
51001		0.604892	-0.352781	0.353392	-0.620295	-59.910986	-0.580374	-91.106089
51002		0.604846	-0.353827	0.352665	-0.620158	-59.940091	-0.701439	-91.027808
51003		0.604617	-0.354815	0.352178	-0.620094	-59.986442	-0.812014	-90.979347
51004		0.604267	-0.355756	0.351879	-0.620065	-60.046236	-0.912518	-90.951150
51005		0.603801	-0.356690	0.351776	-0.620041	-60.123704	-1.003794	-90.939431
51006		0.603198	-0.357652	0.351912	-0.619996	-60.226382	-1.085270	-90.944163
51007		0.602494	-0.358581	0.352251	-0.619952	-60.344855	-1.154507	-90.965199
51008		0.601659	-0.359544	0.352796	-0.619895	-60.485932	-1.216744	-91.001178
51009		0.600733	-0.360557	0.353482	-0.619813	-60.645025	-1.275440	-91.045198
51010		0.599680	-0.361476	0.354372	-0.619790	-60.814343	-1.321315	-91.114147
51011		0.598463	-0.362290	0.355531	-0.619826	-60.999269	-1.350553	-91.213642
51012		0.596990	-0.363078	0.357006	-0.619939	-61.211399	-1.370367	-91.350109
51013		0.595408	-0.363540	0.358605	-0.620267	-61.404682	-1.372397	-91.527971
51014		0.593885	-0.363923	0.360092	-0.620640	-61.580438	-1.376679	-91.703657
51015		0.592435	-0.364516	0.361439	-0.620895	-61.762950	-1.397834	-91.851328
51016		0.590964	-0.365332	0.362764	-0.621045	-61.964627	-1.433307	-91.982823
51017		0.589323	-0.366056	0.364135	-0.621375	-62.162052	-1.474408	-92.144246
51018		0.587666	-0.366108	0.365427	-0.622155	-62.288833	-1.492914	-92.363574
51019		0.586280	-0.365741	0.366355	-0.623132	-62.341888	-1.503441	-92.581183
51020		0.585305	-0.365823	0.366957	-0.623646	-62.406332	-1.531308	-92.705353
51021		0.584707	-0.366593	0.367427	-0.623478	-62.523319	-1.572954	-92.720995
51022		0.584346	-0.367637	0.368017	-0.622854	-62.677926	-1.597010	-92.681577
51023		0.584132	-0.368582	0.368834	-0.622012	-62.845435	-1.583222	-92.630271
51024		0.584051	-0.369558	0.369825	-0.620920	-63.033021	-1.543639	-92.558534
51025		0.584203	-0.370685	0.370640	-0.619617	-63.218210	-1.507526	-92.442303
51026		0.584708	-0.371858	0.371007	-0.618216	-63.365276	-1.485012	-92.274594
51027		0.585371	-0.373015	0.371179	-0.616787	-63.492329	-1.466169	-92.086709
51028		0.586099	-0.374119	0.371259	-0.615379	-63.605688	-1.447474	-91.894446
51029		0.586905	-0.375117	0.371221	-0.614023	-63.698105	-1.427846	-91.700081
51030		0.587746	-0.376131	0.371147	-0.612641	-63.788643	-1.408784	-91.499447
51031		0.588568	-0.377091	0.371019	-0.611338	-63.869044	-1.393611	-91.305675
51032		0.589360	-0.377899	0.370900	-0.610147	-63.935855	-1.372970	-91.128725
51033		0.590127	-0.378564	0.370781	-0.609066	-63.989105	-1.348037	-90.967425
51034		0.590876	-0.379178	0.370682	-0.608018	-64.039266	-1.320202	-90.812741
51035		0.591580	-0.379802	0.370645	-0.606964	-64.096577	-1.290360	-90.662857
51036		0.592223	-0.380415	0.370656	-0.605946	-64.157269	-1.260597	-90.522209
51037		0.592825	-0.380970	0.370738	-0.604957	-64.219244	-1.224822	-90.392032
51038		0.593285	-0.381417	0.371041	-0.604039	-64.291597	-1.175497	-90.290496
51039		0.593642	-0.381762	0.371535	-0.603166	-64.372349	-1.112423	-90.211698
51040		0.593932	-0.382048	0.372124	-0.602336	-64.456373	-1.043429	-90.147194
51041		0.594152	-0.382373	0.372749	-0.601525	-64.547616	-0.978414	-90.088725
51042		0.594321	-0.382684	0.373393	-0.600761	-64.639289	-0.915208	-90.038496
51043		0.594453	-0.382952	0.374024	-0.600067	-64.725505	-0.854551	-89.996989
51044		0.594526	-0.383174	0.374634	-0.599471	-64.805348	-0.799009	-89.967513
51045		0.594613	-0.383388	0.375171	-0.598912	-64.877313	-0.748763	-89.936844
51046		0.594716	-0.383656	0.375569	-0.598388	-64.941425	-0.712638	-89.899210
51047		0.594874	-0.383882	0.375838	-0.597917	-64.989079	-0.682181	-89.857841
51048		0.595005	-0.384058	0.376123	-0.597495	-65.033460	-0.650705	-89.824505
51049		0.595089	-0.384194	0.376431	-0.597129	-65.076170	-0.619225	-89.801077
51050		0.595199	-0.384344	0.376661	-0.596779	-65.112718	-0.593645	-89.772873
51051		0.595303	-0.384455	0.376854	-0.596481	-65.141933	-0.570373	-89.748867
51052		0.595389	-0.384592	0.377048	-0.596185	-65.173733	-0.549757	-89.725071
51053		0.595474	-0.384719	0.377203	-0.595919	-65.201058	-0.532491	-89.702283
51054		0.595546	-0.384762	0.377369	-0.595715	-65.221017	-0.511997	-89.688738
51055		0.595551	-0.384726	0.377582	-0.595597	-65.237965	-0.489537	-89.691128
51056		0.595532	-0.384667	0.377811	-0.595510	-65.254112	-0.466907	-89.699012
51057		0.595493	-0.384633	0.378033	-0.595430	-65.272074	-0.447557	-89.707271
51058		0.595444	-0.384577	0.378283	-0.595356	-65.290621	-0.425587	-89.718887
51059		0.595379	-0.384367	0.378552	-0.595386	-65.295976	-0.396964	-89.746279
51060		0.595312	-0.384015	0.378797	-0.595524	-65.285370	-0.365340	-89.786443
51061		0.595250	-0.383693	0.379034	-0.595643	-65.276847	-0.335116	-89.823245
51062		0.595143	-0.383392	0.379344	-0.595746	-65.277597	-0.302567	-89.864256
51063		0.594989	-0.383097	0.379744	-0.595834	-65.287403	-0.265643	-89.911140
51064		0.594780	-0.382842	0.380225	-0.595900	-65.308939	-0.227468	-89.962009
51065		0.594529	-0.382637	0.380739	-0.595954	-65.338527	-0.191837	-90.014155
51066		0.594280	-0.382440	0.381242	-0.596009	-65.367870	-0.157339	-90.065492
51067		0.594055	-0.382235	0.381715	-0.596061	-65.393706	-0.123239	-90.113999
51068		0.593862	-0.382031	0.382133	-0.596116	-65.414308	-0.091717	-90.158208
51069		0.593700	-0.381884	0.382452	-0.596168	-65.430902	-0.069319	-90.193138
51070		0.593615	-0.381766	0.382688	-0.596177	-65.442232	-0.049349	-90.215041
51071		0.593492	-0.381705	0.382915	-0.596192	-65.458354	-0.035799	-90.237050
51072		0.593337	-0.381631	0.383168	-0.596230	-65.475661	-0.021991	-90.264556
51073		0.593121	-0.381597	0.383411	-0.596310	-65.495900	-0.016155	-90.296833
51074		0.592844	-0.381583	0.383683	-0.596421	-65.520746	-0.013724	-90.335848
51075		0.592540	-0.381569	0.383922	-0.596578	-65.542443	-0.016797	-90.378283
51076		0.592185	-0.381491	0.384149	-0.596834	-65.556921	-0.022843	-90.433363
51077		0.591780	-0.381401	0.384445	-0.597102	-65.577039	-0.026156	-90.496051
51078		0.591331	-0.381308	0.384753	-0.597409	-65.597770	-0.032164	-90.565211
51079		0.590838	-0.381176	0.385092	-0.597762	-65.617998	-0.037334	-90.643413
51080		0.590355	-0.381008	0.385414	-0.598139	-65.633091	-0.041774	-90.723545
51081		0.589827	-0.380836	0.385764	-0.598543	-65.650571	-0.047336	-90.809938
51082		0.589266	-0.380667	0.386166	-0.598944	-65.673417	-0.050867	-90.900454
51083		0.588699	-0.380495	0.386608	-0.599326	-65.699901	-0.050981	-90.992033
51084		0.588119	-0.380321	0.387037	-0.599729	-65.724997	-0.053349	-91.085485
51085		0.587561	-0.380109	0.387471	-0.600130	-65.747032	-0.051812	-91.179157
51086		0.586969	-0.379908	0.387947	-0.600528	-65.774156	-0.049601	-91.276298
51087		0.586382	-0.379730	0.388416	-0.600911	-65.802886	-0.048560	-91.370822
51088		0.585833	-0.379556	0.388822	-0.601294	-65.825961	-0.050482	-91.459742
51089		0.585301	-0.379359	0.389194	-0.601695	-65.843547	-0.053075	-91.548234
51090		0.584784	-0.379135	0.389555	-0.602105	-65.857539	-0.054303	-91.637013
51091		0.584279	-0.378898	0.389893	-0.602526	-65.867998	-0.056096	-91.725302
51092		0.583776	-0.378652	0.390241	-0.602942	-65.878779	-0.056362	-91.814012
51093		0.583271	-0.378423	0.390616	-0.603333	-65.893739	-0.055039	-91.901530
51094		0.582740	-0.378193	0.391030	-0.603722	-65.912548	-0.052062	-91.992521
51095		0.582210	-0.377977	0.391465	-0.604086	-65.934771	-0.047676	-92.082033
51096		0.581695	-0.377809	0.391887	-0.604414	-65.960275	-0.045119	-92.165337
51097		0.581197	-0.377664	0.392298	-0.604717	-65.986962	-0.043221	-92.244363
51098		0.580728	-0.377550	0.392684	-0.604988	-66.014144	-0.042487	-92.316614
51099		0.580307	-0.377459	0.393012	-0.605236	-66.037913	-0.044041	-92.380597
51100		0.579917	-0.377365	0.393319	-0.605468	-66.059296	-0.044735	-92.440623
51101		0.579579	-0.377276	0.393537	-0.605706	-66.072266	-0.049581	-92.493317
51102		0.579296	-0.377179	0.393743	-0.605903	-66.083468	-0.050393	-92.539257
51103		0.579047	-0.377096	0.393890	-0.606097	-66.090126	-0.054543	-92.579567
51104		0.578856	-0.377021	0.393989	-0.606262	-66.092885	-0.058566	-92.611423
51105		0.578718	-0.376962	0.394054	-0.606388	-66.093635	-0.061787	-92.634763
51106		0.578629	-0.376939	0.394080	-0.606470	-66.094068	-0.066068	-92.648594
51107		0.578596	-0.376891	0.394062	-0.606543	-66.087736	-0.068498	-92.657135
51108		0.578594	-0.376815	0.394056	-0.606596	-66.079977	-0.066079	-92.663965
51109		0.578580	-0.376788	0.394094	-0.606602	-66.081166	-0.062482	-92.668210
51110		0.578640	-0.376735	0.394068	-0.606594	-66.073667	-0.057453	-92.664785
51111		0.578706	-0.376634	0.394071	-0.606593	-66.064313	-0.047208	-92.664790
51112		0.578800	-0.376542	0.394071	-0.606560	-66.055660	-0.035239	-92.660310
51113		0.578951	-0.376480	0.394023	-0.606485	-66.045087	-0.024027	-92.645562
51114		0.579080	-0.376426	0.394022	-0.606396	-66.039885	-0.010662	-92.633048
51115		0.579201	-0.376410	0.394070	-0.606259	-66.043171	0.005052	-92.618396
51116		0.579363	-0.376403	0.394064	-0.606113	-66.041867	0.018642	-92.597479
51117		0.579530	-0.376418	0.394060	-0.605946	-66.042896	0.032158	-92.573916
51118		0.579775	-0.376420	0.393989	-0.605757	-66.036043	0.046588	-92.541192
51119		0.580027	-0.376417	0.393906	-0.605571	-66.027629	0.060569	-92.507938
51120		0.580271	-0.376428	0.393873	-0.605353	-66.025295	0.078042	-92.474549
51121		0.580521	-0.376489	0.393823	-0.605106	-66.026240	0.092448	-92.435880
51122		0.580787	-0.376581	0.393735	-0.604851	-66.026199	0.103255	-92.392537
51123		0.581014	-0.376651	0.393642	-0.604650	-66.023578	0.111112	-92.356248
51124		0.581279	-0.376749	0.393511	-0.604420	-66.019850	0.117456	-92.312451
51125		0.581567	-0.376846	0.393322	-0.604206	-66.010399	0.120321	-92.265748
51126		0.581822	-0.376935	0.393157	-0.604012	-66.002554	0.123107	-92.224070
51127		0.582110	-0.377020	0.392941	-0.603822	-65.989325	0.123984	-92.178203
51128		0.582409	-0.377114	0.392725	-0.603616	-65.976836	0.125408	-92.130206
51129		0.582699	-0.377208	0.392530	-0.603404	-65.966610	0.128101	-92.083267
51130		0.583010	-0.377303	0.392342	-0.603166	-65.957036	0.133181	-92.033486
51131		0.583316	-0.377379	0.392167	-0.602937	-65.946957	0.139977	-91.986065
51132		0.583611	-0.377496	0.392039	-0.602661	-65.945402	0.148511	-91.936394
51133		0.583880	-0.377649	0.391906	-0.602391	-65.946834	0.152806	-91.887125
51134		0.584132	-0.377849	0.391773	-0.602107	-65.952773	0.153723	-91.835998
51135		0.584366	-0.377990	0.391656	-0.601868	-65.954661	0.157017	-91.792513
51136		0.584609	-0.378192	0.391503	-0.601605	-65.958807	0.155123	-91.742437
51137		0.584857	-0.378342	0.391355	-0.601366	-65.958463	0.156379	-91.696241
51138		0.585048	-0.378529	0.391263	-0.601122	-65.967212	0.156530	-91.654319
51139		0.585250	-0.378724	0.391156	-0.600873	-65.975194	0.155756	-91.610355
51140		0.585448	-0.378956	0.391050	-0.600603	-65.986838	0.153279	-91.563652
51141		0.585609	-0.379130	0.390986	-0.600377	-65.997120	0.154056	-91.526857
51142		0.585744	-0.379280	0.390937	-0.600182	-66.006639	0.154940	-91.495608
51143		0.585879	-0.379429	0.390840	-0.600019	-66.011311	0.151291	-91.464589
51144		0.586009	-0.379606	0.390723	-0.599857	-66.016625	0.144115	-91.431744
51145		0.586129	-0.379804	0.390586	-0.599703	-66.022141	0.133405	-91.398368
51146		0.586224	-0.379984	0.390464	-0.599576	-66.027316	0.122540	-91.369897
51147		0.586298	-0.380143	0.390342	-0.599482	-66.030576	0.110946	-91.346032
51148		0.586356	-0.380323	0.390206	-0.599400	-66.034494	0.095551	-91.322653
51149		0.586445	-0.380533	0.390024	-0.599298	-66.036622	0.077323	-91.292329
51150		0.586516	-0.380685	0.389829	-0.599259	-66.032133	0.058690	-91.269566
51151		0.586573	-0.380836	0.389640	-0.599231	-66.028038	0.039401	-91.248772
51152		0.586635	-0.380937	0.389462	-0.599221	-66.020253	0.023653	-91.231526
51153		0.586676	-0.381066	0.389316	-0.599194	-66.018325	0.008012	-91.214720
51154		0.586716	-0.381071	0.389156	-0.599255	-66.003270	-0.003977	-91.208857
51155		0.586744	-0.381135	0.389021	-0.599275	-65.996100	-0.017079	-91.199635
51156		0.586790	-0.381148	0.388877	-0.599316	-65.983290	-0.027391	-91.192340
51157		0.586819	-0.381239	0.388708	-0.599338	-65.975601	-0.044742	-91.180401
51158		0.586869	-0.381263	0.388512	-0.599401	-65.958792	-0.059957	-91.171554
51159		0.586898	-0.381317	0.388340	-0.599450	-65.947137	-0.076142	-91.162998
51160		0.586937	-0.381329	0.388137	-0.599536	-65.928456	-0.092621	-91.156706
51161		0.586952	-0.381386	0.387950	-0.599605	-65.915794	-0.111486	-91.149645
51162		0.586953	-0.381394	0.387768	-0.599717	-65.898764	-0.129085	-91.148886
51163		0.586925	-0.381429	0.387608	-0.599826	-65.886520	-0.148338	-91.149587
51164		0.586874	-0.381457	0.387483	-0.599940	-65.876946	-0.165892	-91.154047
51165		0.586827	-0.381490	0.387383	-0.600029	-65.870330	-0.180834	-91.157421
51166		0.586775	-0.381519	0.387248	-0.600148	-65.860037	-0.199464	-91.161867
51167		0.586734	-0.381556	0.387140	-0.600234	-65.853025	-0.214817	-91.164204
51168		0.586673	-0.381573	0.387039	-0.600348	-65.844894	-0.230459	-91.170905
51169		0.586626	-0.381602	0.386916	-0.600455	-65.835632	-0.247475	-91.174636
51170		0.586581	-0.381633	0.386783	-0.600565	-65.825681	-0.265417	-91.177992
51171		0.586506	-0.381682	0.386659	-0.600687	-65.818214	-0.285773	-91.183863
51172		0.586409	-0.381720	0.386579	-0.600809	-65.814121	-0.303343	-91.193521
51173		0.586313	-0.381757	0.386451	-0.600961	-65.805182	-0.325448	-91.203212
51174		0.586219	-0.381782	0.386353	-0.601100	-65.798001	-0.343921	-91.213578
51175		0.586071	-0.381780	0.386248	-0.601313	-65.787539	-0.366762	-91.233636
51176		0.585935	-0.381754	0.386137	-0.601533	-65.774247	-0.388086	-91.254247
51177		0.585793	-0.381743	0.386021	-0.601753	-65.761790	-0.410984	-91.274304
51178		0.585641	-0.381685	0.385917	-0.602004	-65.746088	-0.431717	-91.299696
51179		0.585497	-0.381662	0.385803	-0.602232	-65.732806	-0.454086	-91.321080
51180		0.585381	-0.381646	0.385663	-0.602444	-65.717605	-0.476754	-91.337997
51181		0.585241	-0.381639	0.385570	-0.602645	-65.707754	-0.497525	-91.357508
51182		0.585108	-0.381624	0.385456	-0.602856	-65.695225	-0.519280	-91.376657
51183		0.584989	-0.381600	0.385327	-0.603070	-65.680304	-0.540757	-91.394779
51184		0.584874	-0.381603	0.385189	-0.603267	-65.667071	-0.563969	-91.409869
51185		0.584758	-0.381649	0.385034	-0.603450	-65.656388	-0.590648	-91.421433
51186		0.584664	-0.381730	0.384865	-0.603597	-65.647736	-0.618161	-91.426941
51187		0.584558	-0.381791	0.384742	-0.603739	-65.641561	-0.641529	-91.435743
51188		0.584418	-0.381836	0.384669	-0.603892	-65.638754	-0.662366	-91.450528
51189		0.584300	-0.381910	0.384612	-0.603997	-65.640126	-0.681135	-91.459948
51190		0.584196	-0.381984	0.384549	-0.604091	-65.641086	-0.699223	-91.467411
51191		0.584103	-0.382033	0.384508	-0.604176	-65.641772	-0.713146	-91.475581
51192		0.584027	-0.382092	0.384469	-0.604236	-65.643588	-0.725826	-91.480518
51193		0.583972	-0.382145	0.384407	-0.604295	-65.642658	-0.738647	-91.483313
51194		0.583938	-0.382221	0.384344	-0.604321	-65.643671	-0.750714	-91.481263
51195		0.583918	-0.382313	0.384271	-0.604328	-65.645498	-0.763180	-91.475810
51196		0.583906	-0.382364	0.384183	-0.604363	-65.641772	-0.774628	-91.473020
51197		0.583908	-0.382439	0.384076	-0.604382	-65.638554	-0.787808	-91.466194
51198		0.583956	-0.382531	0.383928	-0.604371	-65.633036	-0.801446	-91.451612
51199		0.584024	-0.382596	0.383780	-0.604358	-65.625002	-0.812307	-91.436860
51200		0.584086	-0.382649	0.383652	-0.604346	-65.617638	-0.821286	-91.423791
51201		0.584179	-0.382738	0.383504	-0.604293	-65.611897	-0.830904	-91.403564
51202		0.584281	-0.382837	0.383348	-0.604232	-65.606206	-0.841027	-91.381290
51203		0.584377	-0.382965	0.383203	-0.604150	-65.604489	-0.851814	-91.357262
51204		0.584469	-0.383082	0.383052	-0.604082	-65.601226	-0.863029	-91.334613
51205		0.584569	-0.383195	0.382898	-0.604012	-65.597121	-0.873635	-91.311295
51206		0.584667	-0.383338	0.382732	-0.603932	-65.594786	-0.886918	-91.285681
51207		0.584765	-0.383471	0.382570	-0.603854	-65.591996	-0.899199	-91.260710
51208		0.584863	-0.383614	0.382404	-0.603774	-65.589672	-0.912479	-91.235094
51209		0.584954	-0.383739	0.382242	-0.603709	-65.586126	-0.925167	-91.211865
51210		0.585064	-0.383849	0.382051	-0.603653	-65.578305	-0.938252	-91.187351
51211		0.585195	-0.383939	0.381859	-0.603590	-65.568394	-0.948821	-91.161925
51212		0.585332	-0.384022	0.381638	-0.603545	-65.555066	-0.961458	-91.136313
51213		0.585477	-0.384095	0.381432	-0.603487	-65.542337	-0.971364	-91.110322
51214		0.585627	-0.384156	0.381256	-0.603414	-65.531369	-0.977629	-91.084771
51215		0.585747	-0.384235	0.381090	-0.603352	-65.522888	-0.986329	-91.061736
51216		0.585869	-0.384327	0.380925	-0.603279	-65.516007	-0.995193	-91.037263
51217		0.585990	-0.384406	0.380758	-0.603217	-65.507533	-1.003882	-91.014047
51218		0.586110	-0.384501	0.380585	-0.603149	-65.499940	-1.013822	-90.989563
51219		0.586225	-0.384604	0.380406	-0.603085	-65.492810	-1.025104	-90.965076
51220		0.586336	-0.384675	0.380255	-0.603027	-65.485071	-1.032818	-90.943926
51221		0.586446	-0.384744	0.380112	-0.602966	-65.478040	-1.039632	-90.923049
51222		0.586571	-0.384844	0.379922	-0.602901	-65.469382	-1.051058	-90.897447
51223		0.586668	-0.384918	0.379741	-0.602872	-65.459162	-1.062852	-90.877754
51224		0.586759	-0.384954	0.379603	-0.602849	-65.449386	-1.069590	-90.862506
51225		0.586820	-0.385018	0.379487	-0.602822	-65.444403	-1.078025	-90.848627
51226		0.586861	-0.385103	0.379371	-0.602800	-65.441558	-1.088947	-90.835540
51227		0.586894	-0.385171	0.379261	-0.602794	-65.437468	-1.099321	-90.825105
51228		0.586921	-0.385237	0.379164	-0.602787	-65.434527	-1.108930	-90.815712
51229		0.586949	-0.385284	0.379068	-0.602789	-65.429922	-1.117504	-90.807689
51230		0.586973	-0.385321	0.379006	-0.602782	-65.427486	-1.122899	-90.801281
51231		0.586983	-0.385350	0.378958	-0.602782	-65.425778	-1.127649	-90.797242
51232		0.586994	-0.385406	0.378917	-0.602761	-65.427258	-1.132893	-90.790828
51233		0.586989	-0.385441	0.378905	-0.602753	-65.429342	-1.135950	-90.788545
51234		0.586987	-0.385473	0.378901	-0.602735	-65.432156	-1.137733	-90.785843
51235		0.586958	-0.385486	0.378922	-0.602744	-65.435301	-1.138910	-90.788729
51236		0.586921	-0.385497	0.378955	-0.602751	-65.439567	-1.139317	-90.792664
51237		0.586876	-0.385533	0.378978	-0.602757	-65.445212	-1.142495	-90.795523
51238		0.586819	-0.385542	0.379030	-0.602774	-65.451031	-1.142838	-90.802400
51239		0.586729	-0.385556	0.379094	-0.602813	-65.458521	-1.145144	-90.813298
51240		0.586617	-0.385578	0.379171	-0.602859	-65.468024	-1.148348	-90.826394
51241		0.586496	-0.385597	0.379248	-0.602917	-65.477174	-1.152428	-90.841025
51242		0.586384	-0.385627	0.379314	-0.602964	-65.486368	-1.156954	-90.853369
51243		0.586277	-0.385659	0.379382	-0.603005	-65.495939	-1.161012	-90.864922
51244		0.586184	-0.385665	0.379431	-0.603061	-65.501161	-1.164771	-90.876914
51245		0.586082	-0.385646	0.379495	-0.603132	-65.505453	-1.166683	-90.892352
51246		0.585983	-0.385627	0.379559	-0.603200	-65.509747	-1.168379	-90.907311
51247		0.585888	-0.385598	0.379637	-0.603262	-65.514292	-1.168012	-90.922668
51248		0.585784	-0.385573	0.379718	-0.603328	-65.519666	-1.168226	-90.938741
51249		0.585675	-0.385582	0.379796	-0.603379	-65.527923	-1.170678	-90.952595
51250		0.585573	-0.385556	0.379886	-0.603438	-65.534015	-1.169819	-90.968676
51251		0.585461	-0.385519	0.379986	-0.603507	-65.540019	-1.168511	-90.986929
51252		0.585374	-0.385448	0.380082	-0.603577	-65.542349	-1.163990	-91.004902
51253		0.585264	-0.385425	0.380170	-0.603643	-65.548458	-1.164258	-91.021742
51254		0.585190	-0.385417	0.380221	-0.603687	-65.552734	-1.165433	-91.032284
51255		0.585090	-0.385380	0.380302	-0.603756	-65.556874	-1.164877	-91.048977
51256		0.584993	-0.385371	0.380388	-0.603802	-65.564196	-1.164761	-91.062833
51257		0.584909	-0.385354	0.380450	-0.603856	-65.568423	-1.165497	-91.075632
51258		0.584807	-0.385321	0.380526	-0.603927	-65.572609	-1.165617	-91.092069
51259		0.584707	-0.385267	0.380620	-0.604000	-65.576263	-1.163185	-91.110386
51260		0.584615	-0.385211	0.380725	-0.604058	-65.580966	-1.158838	-91.127608
51261		0.584510	-0.385157	0.380825	-0.604131	-65.585360	-1.156269	-91.146506
51262		0.584426	-0.385130	0.380922	-0.604168	-65.592113	-1.153164	-91.160026
51263		0.584351	-0.385092	0.381002	-0.604215	-65.596120	-1.150496	-91.173499
51264		0.584282	-0.385035	0.381108	-0.604251	-65.600714	-1.144063	-91.187802
51265		0.584206	-0.384986	0.381209	-0.604292	-65.605777	-1.139034	-91.202346
51266		0.584160	-0.384944	0.381284	-0.604317	-65.608915	-1.134226	-91.212220
51267		0.584122	-0.384925	0.381322	-0.604341	-65.610736	-1.133108	-91.218958
51268		0.584087	-0.384916	0.381396	-0.604334	-65.617054	-1.128724	-91.224403
51269		0.584068	-0.384906	0.381444	-0.604329	-65.620693	-1.125424	-91.227893
51270		0.584030	-0.384918	0.381526	-0.604306	-65.629787	-1.121473	-91.231852
51271		0.584005	-0.384922	0.381607	-0.604276	-65.638007	-1.116045	-91.234834
51272		0.583958	-0.384923	0.381723	-0.604247	-65.649277	-1.109142	-91.241030
51273		0.583930	-0.384919	0.381831	-0.604209	-65.659273	-1.101171	-91.245152
51274		0.583907	-0.384904	0.381944	-0.604169	-65.668841	-1.091842	-91.249548
51275		0.583900	-0.384900	0.382043	-0.604116	-65.677991	-1.082875	-91.250910
51276		0.583910	-0.384872	0.382140	-0.604063	-65.684715	-1.071681	-91.252034
51277		0.583885	-0.384862	0.382276	-0.604007	-65.696934	-1.060498	-91.256159
51278		0.583878	-0.384859	0.382424	-0.603922	-65.710976	-1.046970	-91.257292
51279		0.583876	-0.384861	0.382563	-0.603835	-65.724654	-1.034053	-91.257518
51280		0.583861	-0.384862	0.382723	-0.603747	-65.740246	-1.020209	-91.259391
51281		0.583842	-0.384871	0.382887	-0.603656	-65.757045	-1.006668	-91.261112
51282		0.583831	-0.384892	0.383032	-0.603561	-65.773137	-0.994638	-91.260759
51283		0.583820	-0.384883	0.383182	-0.603483	-65.786749	-0.981092	-91.263085
51284		0.583806	-0.384890	0.383340	-0.603391	-65.802749	-0.967493	-91.264230
51285		0.583769	-0.384898	0.383497	-0.603322	-65.818781	-0.956200	-91.268523
51286		0.583744	-0.384872	0.383655	-0.603262	-65.831614	-0.942182	-91.274101
51287		0.583715	-0.384825	0.383813	-0.603220	-65.842413	-0.927830	-91.282161
51288		0.583688	-0.384799	0.383987	-0.603152	-65.856748	-0.912585	-91.288124
51289		0.583644	-0.384768	0.384158	-0.603105	-65.870362	-0.898895	-91.296589
51290		0.583601	-0.384746	0.384333	-0.603049	-65.885171	-0.885076	-91.304374
51291		0.583563	-0.384726	0.384510	-0.602987	-65.900382	-0.870797	-91.311243
51292		0.583493	-0.384693	0.384688	-0.602961	-65.914497	-0.858574	-91.323422
51293		0.583459	-0.384670	0.384858	-0.602901	-65.928871	-0.844471	-91.330105
51294		0.583399	-0.384639	0.385022	-0.602873	-65.941846	-0.832809	-91.340812
51295		0.583342	-0.384610	0.385189	-0.602840	-65.955199	-0.820722	-91.350937
51296		0.583287	-0.384597	0.385348	-0.602800	-65.969395	-0.809806	-91.359428
51297		0.583225	-0.384594	0.385517	-0.602754	-65.985534	-0.799030	-91.368073
51298		0.583182	-0.384597	0.385650	-0.602709	-65.998674	-0.790240	-91.373598
51299		0.583137	-0.384605	0.385796	-0.602654	-66.013701	-0.780668	-91.378851
51300		0.583088	-0.384600	0.385913	-0.602630	-66.024581	-0.773523	-91.385828
51301		0.583042	-0.384605	0.386036	-0.602592	-66.036988	-0.766003	-91.391464
51302		0.582994	-0.384633	0.386157	-0.602543	-66.051448	-0.759787	-91.395480
51303		0.582953	-0.384667	0.386264	-0.602492	-66.065134	-0.754623	-91.397871
51304		0.582882	-0.384747	0.386415	-0.602413	-66.087508	-0.749722	-91.400378
51305		0.582793	-0.384889	0.386586	-0.602299	-66.117802	-0.746990	-91.399728
51306		0.582684	-0.385034	0.386790	-0.602180	-66.151598	-0.743027	-91.401457
51307		0.582560	-0.385155	0.386998	-0.602090	-66.183361	-0.738945	-91.407409
51308		0.582459	-0.385288	0.387200	-0.601973	-66.215925	-0.733970	-91.409159
51309		0.582313	-0.385450	0.387444	-0.601853	-66.255187	-0.730070	-91.414356
51310		0.582120	-0.385689	0.387772	-0.601676	-66.310120	-0.725422	-91.418975
51311		0.581878	-0.386059	0.388131	-0.601441	-66.380704	-0.727343	-91.418526
51312		0.581624	-0.386488	0.388505	-0.601169	-66.458436	-0.731177	-91.414444
51313		0.581298	-0.386908	0.388966	-0.600916	-66.543835	-0.732678	-91.420596
51314		0.580923	-0.387414	0.389516	-0.600597	-66.646102	-0.733473	-91.425636
51315		0.580518	-0.387982	0.390137	-0.600218	-66.761539	-0.732541	-91.429033
51316		0.580069	-0.388648	0.390861	-0.599751	-66.896509	-0.729490	-91.429566
51317		0.579658	-0.389346	0.391571	-0.599231	-67.033368	-0.725415	-91.421891
51318		0.579296	-0.390051	0.392252	-0.598677	-67.168190	-0.720214	-91.406991
51319		0.578880	-0.390858	0.393032	-0.598042	-67.322580	-0.714118	-91.390074
51320		0.578447	-0.391802	0.393866	-0.597294	-67.495805	-0.709320	-91.362765
51321		0.578033	-0.392778	0.394653	-0.596533	-67.667689	-0.708514	-91.329805
51322		0.577621	-0.393729	0.395457	-0.595773	-67.838987	-0.704624	-91.298696
51323		0.577171	-0.394698	0.396323	-0.594991	-68.018308	-0.698525	-91.270652
51324		0.576710	-0.395720	0.397261	-0.594134	-68.210003	-0.688268	-91.239150
51325		0.576191	-0.396796	0.398315	-0.593214	-68.418658	-0.673698	-91.209969
51326		0.575647	-0.397832	0.399404	-0.592314	-68.627169	-0.656137	-91.187355
51327		0.575182	-0.398676	0.400430	-0.591506	-68.810809	-0.630207	-91.171607
51328		0.574744	-0.399447	0.401419	-0.590741	-68.983859	-0.602376	-91.158879
51329		0.574273	-0.400278	0.402494	-0.589905	-69.171555	-0.571229	-91.144765
51330		0.573813	-0.401222	0.403544	-0.588992	-69.368160	-0.545220	-91.118550
51331		0.573375	-0.402200	0.404564	-0.588052	-69.565179	-0.521123	-91.086008
51332		0.572945	-0.403122	0.405598	-0.587126	-69.758462	-0.492455	-91.057380
51333		0.572496	-0.404051	0.406647	-0.586199	-69.954034	-0.464188	-91.030357
51334		0.572035	-0.404969	0.407767	-0.585236	-70.155942	-0.429234	-91.005679
51335		0.571537	-0.405872	0.408945	-0.584275	-70.362258	-0.391240	-90.987067
51336		0.570985	-0.406730	0.410217	-0.583325	-70.573832	-0.346955	-90.979449
51337		0.570479	-0.407580	0.411441	-0.582364	-70.780149	-0.302669	-90.966280
51338		0.570033	-0.408425	0.412614	-0.581379	-70.981016	-0.257391	-90.945700
51339		0.569559	-0.409282	0.413788	-0.580406	-71.183527	-0.214586	-90.927251
51340		0.569022	-0.410269	0.415058	-0.579327	-71.408805	-0.172201	-90.904526
51341		0.568471	-0.411342	0.416353	-0.578178	-71.645379	-0.131103	-90.875411
51342		0.567904	-0.412347	0.417675	-0.577064	-71.878318	-0.086149	-90.854347
51343		0.567369	-0.413380	0.418993	-0.575895	-72.114025	-0.038905	-90.826264
51344		0.566859	-0.414367	0.420314	-0.574723	-72.345707	0.012923	-90.798817
51345		0.566277	-0.415445	0.421719	-0.573488	-72.595399	0.063819	-90.771841
51346		0.565785	-0.416487	0.423028	-0.572253	-72.832102	0.115354	-90.736365
51347		0.565300	-0.417600	0.424317	-0.570964	-73.074327	0.164055	-90.692785
51348		0.564728	-0.418800	0.425686	-0.569632	-73.333603	0.210233	-90.651972
51349		0.564089	-0.419909	0.427122	-0.568372	-73.591138	0.260140	-90.627989
51350		0.563341	-0.421139	0.428736	-0.566987	-73.879428	0.314419	-90.606066
51351		0.562481	-0.422625	0.430427	-0.565452	-74.201990	0.358936	-90.573359
51352		0.561655	-0.424191	0.432035	-0.563872	-74.524761	0.397104	-90.527894
51353		0.560855	-0.425539	0.433581	-0.562464	-74.819786	0.438402	-90.499432
51354		0.559955	-0.426767	0.435198	-0.561180	-75.110528	0.481073	-90.495060
51355		0.559014	-0.427897	0.436804	-0.560009	-75.390803	0.521826	-90.505079
51356		0.558181	-0.428937	0.438249	-0.558914	-75.645916	0.559564	-90.509650
51357		0.557456	-0.429952	0.439476	-0.557893	-75.876257	0.586945	-90.502378
51358		0.556792	-0.430915	0.440607	-0.556920	-76.091661	0.612113	-90.492209
51359		0.556098	-0.431797	0.441767	-0.556011	-76.302147	0.639645	-90.493476
51360		0.555420	-0.432648	0.442903	-0.555123	-76.507346	0.667464	-90.495575
51361		0.554759	-0.433477	0.443976	-0.554279	-76.703911	0.691262	-90.497402
51362		0.554128	-0.434237	0.445003	-0.553491	-76.889012	0.715274	-90.502000
51363		0.553487	-0.434935	0.446015	-0.552770	-77.066273	0.738512	-90.513871
51364		0.552855	-0.435559	0.447007	-0.552109	-77.234296	0.762483	-90.531710
51365		0.552222	-0.436062	0.447920	-0.551606	-77.381694	0.781154	-90.561685
51366		0.551666	-0.436468	0.448731	-0.551181	-77.508653	0.799479	-90.591419
51367		0.551186	-0.436802	0.449397	-0.550854	-77.613023	0.812163	-90.618567
51368		0.550723	-0.437078	0.450014	-0.550595	-77.706359	0.822794	-90.649455
51369		0.550250	-0.437359	0.450632	-0.550339	-77.800382	0.832484	-90.681040
51370		0.549810	-0.437557	0.451177	-0.550175	-77.878293	0.839835	-90.716617
51371		0.549441	-0.437652	0.451622	-0.550103	-77.935058	0.846326	-90.753636
51372		0.549135	-0.437698	0.451956	-0.550097	-77.975191	0.848964	-90.787437
51373		0.548919	-0.437744	0.452205	-0.550072	-78.006220	0.851817	-90.810087
51374		0.548724	-0.437757	0.452383	-0.550110	-78.026473	0.850242	-90.833347
51375		0.548594	-0.437664	0.452491	-0.550224	-78.028429	0.850382	-90.858987
51376		0.548510	-0.437561	0.452517	-0.550369	-78.020528	0.846869	-90.879900
51377		0.548454	-0.437420	0.452495	-0.550554	-78.003892	0.842191	-90.901044
51378		0.548406	-0.437256	0.452454	-0.550765	-77.982774	0.836918	-90.923448
51379		0.548395	-0.437051	0.452348	-0.551028	-77.950392	0.829471	-90.945516
51380		0.548416	-0.436827	0.452196	-0.551309	-77.911379	0.821084	-90.965259
51381		0.548434	-0.436650	0.452026	-0.551570	-77.875280	0.809450	-90.980652
51382		0.548515	-0.436465	0.451806	-0.551817	-77.833100	0.799162	-90.989118
51383		0.548627	-0.436280	0.451541	-0.552068	-77.786189	0.787393	-90.993480
51384		0.548766	-0.436071	0.451248	-0.552334	-77.733812	0.776079	-90.996824
51385		0.548903	-0.435815	0.450976	-0.552623	-77.678833	0.767850	-91.005250
51386		0.549027	-0.435558	0.450721	-0.552910	-77.625551	0.760152	-91.015328
51387		0.549159	-0.435303	0.450469	-0.553184	-77.573028	0.753662	-91.024008
51388		0.549305	-0.435067	0.450197	-0.553447	-77.520086	0.745883	-91.029258
51389		0.549457	-0.434876	0.449930	-0.553662	-77.472492	0.738287	-91.029105
51390		0.549649	-0.434683	0.449640	-0.553860	-77.422073	0.732327	-91.024163
51391		0.549847	-0.434473	0.449331	-0.554078	-77.368095	0.725603	-91.020115
51392		0.550044	-0.434286	0.449024	-0.554278	-77.316566	0.718250	-91.013923
51393		0.550238	-0.434147	0.448743	-0.554424	-77.272715	0.712088	-91.003427
51394		0.550442	-0.433998	0.448438	-0.554583	-77.225433	0.704912	-90.992375
51395		0.550638	-0.433814	0.448156	-0.554761	-77.176950	0.700032	-90.985971
51396		0.550824	-0.433636	0.447864	-0.554951	-77.128157	0.693008	-90.980142
51397		0.550997	-0.433477	0.447580	-0.555133	-77.082061	0.685071	-90.974178
51398		0.551185	-0.433292	0.447316	-0.555302	-77.035441	0.681361	-90.968686
51399		0.551344	-0.433129	0.447075	-0.555467	-76.993410	0.676529	-90.964877
51400		0.551515	-0.432965	0.446859	-0.555598	-76.954092	0.675479	-90.959555
51401		0.551683	-0.432807	0.446641	-0.555730	-76.915025	0.673931	-90.953959
51402		0.551835	-0.432675	0.446454	-0.555832	-76.881953	0.673178	-90.947818
51403		0.551982	-0.432582	0.446260	-0.555914	-76.852132	0.670257	-90.938412
51404		0.552115	-0.432482	0.446101	-0.555987	-76.825306	0.669794	-90.931455
51405		0.552232	-0.432378	0.445951	-0.556073	-76.798947	0.668602	-90.927023
51406		0.552339	-0.432340	0.445791	-0.556124	-76.778206	0.663857	-90.917268
51407		0.552474	-0.432292	0.445596	-0.556184	-76.752899	0.658539	-90.904924
51408		0.552601	-0.432198	0.445425	-0.556267	-76.725408	0.656031	-90.898120
51409		0.552724	-0.432122	0.445287	-0.556314	-76.703257	0.656071	-90.890055
51410		0.552858	-0.432103	0.445135	-0.556318	-76.685419	0.654301	-90.875032
51411		0.552975	-0.432106	0.444981	-0.556323	-76.669539	0.650133	-90.859913
51412		0.553075	-0.432110	0.444889	-0.556294	-76.660227	0.650524	-90.846828
51413		0.553159	-0.432140	0.444796	-0.556262	-76.653605	0.648523	-90.833193
51414		0.553245	-0.432172	0.444703	-0.556225	-76.647140	0.646850	-90.819093
51415		0.553349	-0.432195	0.444581	-0.556201	-76.636677	0.644107	-90.803538
51416		0.553433	-0.432164	0.444497	-0.556209	-76.624684	0.644666	-90.796064
51417		0.553496	-0.432129	0.444426	-0.556230	-76.613778	0.644652	-90.791476
51418		0.553587	-0.432089	0.444333	-0.556246	-76.599834	0.645062	-90.784019
51419		0.553658	-0.432057	0.444270	-0.556249	-76.590050	0.646600	-90.778083
51420		0.553720	-0.432025	0.444227	-0.556247	-76.582288	0.649185	-90.773344
51421		0.553811	-0.431949	0.444163	-0.556266	-76.567896	0.653601	-90.769303
51422		0.553888	-0.431827	0.444113	-0.556325	-76.550256	0.659236	-90.771722
51423		0.553990	-0.431687	0.444040	-0.556389	-76.528337	0.665526	-90.772484
51424		0.554112	-0.431540	0.443936	-0.556466	-76.502449	0.670733	-90.771665
51425		0.554247	-0.431403	0.443820	-0.556530	-76.476279	0.675770	-90.768031
51426		0.554368	-0.431247	0.443727	-0.556605	-76.450723	0.682242	-90.768075
51427		0.554446	-0.431085	0.443656	-0.556709	-76.426808	0.686968	-90.774202
51428		0.554549	-0.430917	0.443586	-0.556792	-76.402421	0.694393	-90.777647
51429		0.554663	-0.430723	0.443489	-0.556906	-76.372599	0.700719	-90.782363
51430		0.554786	-0.430508	0.443366	-0.557048	-76.337792	0.705866	-90.787946
51431		0.554874	-0.430306	0.443275	-0.557188	-76.307758	0.710588	-90.796689
51432		0.554961	-0.430102	0.443183	-0.557333	-76.277359	0.714949	-90.805798
51433		0.555018	-0.429850	0.443101	-0.557534	-76.243354	0.718876	-90.823246
51434		0.555048	-0.429600	0.443040	-0.557746	-76.211627	0.722060	-90.844065
51435		0.555087	-0.429422	0.442945	-0.557920	-76.183603	0.720753	-90.856707
51436		0.555129	-0.429238	0.442830	-0.558112	-76.152879	0.717937	-90.869474
51437		0.555181	-0.428981	0.442724	-0.558341	-76.115739	0.718962	-90.888099
51438		0.555234	-0.428757	0.442612	-0.558550	-76.081391	0.718585	-90.903392
51439		0.555297	-0.428565	0.442485	-0.558734	-76.048729	0.716997	-90.914274
51440		0.555348	-0.428388	0.442402	-0.558886	-76.022070	0.718125	-90.925159
51441		0.555390	-0.428176	0.442354	-0.559044	-75.995648	0.723093	-90.940534
51442		0.555429	-0.427994	0.442308	-0.559181	-75.972394	0.727056	-90.953499
51443		0.555501	-0.427838	0.442212	-0.559305	-75.946611	0.728499	-90.959568
51444		0.555545	-0.427684	0.442172	-0.559411	-75.926811	0.732891	-90.969190
51445		0.555524	-0.427506	0.442180	-0.559562	-75.909615	0.736316	-90.989321
51446		0.555533	-0.427386	0.442138	-0.559677	-75.893214	0.736126	-90.999883
51447		0.555568	-0.427275	0.442059	-0.559789	-75.873760	0.734544	-91.006294
51448		0.555601	-0.427148	0.441973	-0.559922	-75.851946	0.732359	-91.014518
51449		0.555634	-0.427033	0.441897	-0.560037	-75.832352	0.730982	-91.021637
51450		0.555675	-0.426934	0.441802	-0.560146	-75.812482	0.727967	-91.026049
51451		0.555686	-0.426840	0.441745	-0.560252	-75.796996	0.725775	-91.033786
51452		0.555682	-0.426749	0.441703	-0.560359	-75.783434	0.723525	-91.043344
51453		0.555726	-0.426656	0.441616	-0.560454	-75.765002	0.721493	-91.046715
51454		0.555748	-0.426561	0.441537	-0.560567	-75.747140	0.718176	-91.053277
51455		0.555784	-0.426459	0.441452	-0.560676	-75.727962	0.715805	-91.058634
51456		0.555809	-0.426354	0.441378	-0.560789	-75.709657	0.713608	-91.065686
51457		0.555837	-0.426279	0.441298	-0.560881	-75.693824	0.710239	-91.069491
51458		0.555894	-0.426197	0.441193	-0.560969	-75.674671	0.707370	-91.070212
51459		0.555925	-0.426151	0.441144	-0.561012	-75.664878	0.706726	-91.070739
51460		0.555948	-0.426209	0.441099	-0.560981	-75.665999	0.702872	-91.062170
51461		0.556056	-0.426256	0.440940	-0.560963	-75.654237	0.695976	-91.043825
51462		0.556114	-0.426265	0.440863	-0.560959	-75.647057	0.693648	-91.035548
51463		0.556159	-0.426316	0.440763	-0.560955	-75.641750	0.686439	-91.024825
51464		0.556258	-0.426360	0.440589	-0.560959	-75.628136	0.677340	-91.007843
51465		0.556326	-0.426397	0.440456	-0.560968	-75.618086	0.669459	-90.995538
51466		0.556377	-0.426414	0.440357	-0.560982	-75.609513	0.664001	-90.987335
51467		0.556436	-0.426416	0.440230	-0.561023	-75.596419	0.656693	-90.979738
51468		0.556516	-0.426421	0.440090	-0.561049	-75.582379	0.650177	-90.968937
51469		0.556569	-0.426440	0.439976	-0.561072	-75.572356	0.643287	-90.960402
51470		0.556659	-0.426440	0.439833	-0.561095	-75.557482	0.637561	-90.948960
51471		0.556722	-0.426453	0.439691	-0.561132	-75.544179	0.629017	-90.939470
51472		0.556785	-0.426460	0.439576	-0.561156	-75.532879	0.623274	-90.930920
51473		0.556838	-0.426459	0.439465	-0.561191	-75.521207	0.617167	-90.924187
51474		0.556907	-0.426488	0.439343	-0.561196	-75.511465	0.610741	-90.912588
51475		0.556973	-0.426489	0.439223	-0.561224	-75.499060	0.605017	-90.904043
51476		0.557012	-0.426510	0.439142	-0.561232	-75.492840	0.600007	-90.896957
51477		0.557031	-0.426550	0.439065	-0.561243	-75.488906	0.593010	-90.890694
51478		0.557062	-0.426543	0.438993	-0.561274	-75.480742	0.588853	-90.887421
51479		0.557064	-0.426573	0.438934	-0.561296	-75.477599	0.582216	-90.884217
51480		0.557099	-0.426604	0.438848	-0.561304	-75.471825	0.576095	-90.876642
51481		0.557146	-0.426609	0.438751	-0.561329	-75.462323	0.570758	-90.870153
51482		0.557181	-0.426622	0.438665	-0.561353	-75.454603	0.564998	-90.864496
51483		0.557224	-0.426622	0.438558	-0.561393	-75.443630	0.558372	-90.858986
51484		0.557287	-0.426626	0.438453	-0.561410	-75.433065	0.553720	-90.850541
51485		0.557334	-0.426604	0.438366	-0.561447	-75.421863	0.550071	-90.846615
51486		0.557385	-0.426610	0.438255	-0.561478	-75.411021	0.543708	-90.839479
51487		0.557425	-0.426605	0.438165	-0.561513	-75.401158	0.538612	-90.834873
51488		0.557484	-0.426600	0.438054	-0.561545	-75.389091	0.533209	-90.827858
51489		0.557552	-0.426587	0.437948	-0.561570	-75.376832	0.529462	-90.820509
51490		0.557619	-0.426568	0.437845	-0.561598	-75.364267	0.526111	-90.813712
51491		0.557674	-0.426557	0.437760	-0.561619	-75.354242	0.523139	-90.807838
51492		0.557740	-0.426564	0.437662	-0.561624	-75.344796	0.519405	-90.798729
51493		0.557807	-0.426544	0.437567	-0.561646	-75.332969	0.516989	-90.792057
51494		0.557867	-0.426497	0.437473	-0.561697	-75.318461	0.514494	-90.789074
51495		0.557920	-0.426492	0.437391	-0.561711	-75.309455	0.511536	-90.782664
51496		0.557977	-0.426505	0.437295	-0.561719	-75.300846	0.507011	-90.774199
51497		0.558026	-0.426512	0.437206	-0.561734	-75.292413	0.502543	-90.767170
51498		0.558057	-0.426516	0.437145	-0.561748	-75.286545	0.499286	-90.762841
51499		0.558084	-0.426531	0.437085	-0.561756	-75.281811	0.495478	-90.757910
51500		0.558099	-0.426578	0.437018	-0.561758	-75.279615	0.488843	-90.751325
51501		0.558130	-0.426604	0.436966	-0.561748	-75.276826	0.485835	-90.744863
51502		0.558128	-0.426618	0.436930	-0.561767	-75.274586	0.481623	-90.743691
51503		0.558132	-0.426641	0.436895	-0.561773	-75.273313	0.477784	-90.740986
51504		0.558161	-0.426661	0.436828	-0.561782	-75.268280	0.473245	-90.735406
51505		0.558205	-0.426646	0.436758	-0.561802	-75.259650	0.470946	-90.731089
51506		0.558218	-0.426599	0.436728	-0.561849	-75.251792	0.470477	-90.734095
51507		0.558215	-0.426556	0.436717	-0.561894	-75.246178	0.470117	-90.738787
51508		0.558249	-0.426508	0.436678	-0.561926	-75.237424	0.470886	-90.738981
51509		0.558256	-0.426482	0.436655	-0.561957	-75.232370	0.469964	-90.740696
51510		0.558225	-0.426479	0.436681	-0.561970	-75.234715	0.469526	-90.744980
51511		0.558240	-0.426460	0.436658	-0.561988	-75.230448	0.469191	-90.744951
51512		0.558241	-0.426423	0.436644	-0.562024	-75.225323	0.469007	-90.748299
51513		0.558229	-0.426410	0.436649	-0.562043	-75.224396	0.468631	-90.751165
51514		0.558231	-0.426373	0.436635	-0.562080	-75.219270	0.468449	-90.754513
51515		0.558226	-0.426334	0.436630	-0.562119	-75.214787	0.468416	-90.759081
51516		0.558193	-0.426325	0.436657	-0.562137	-75.216744	0.468151	-90.764125
51517		0.558161	-0.426324	0.436681	-0.562151	-75.219079	0.467580	-90.768271
51518		0.558121	-0.426295	0.436706	-0.562194	-75.218756	0.466917	-90.776273
51519		0.558065	-0.426254	0.436753	-0.562243	-75.219528	0.467361	-90.787375
51520		0.558040	-0.426213	0.436756	-0.562297	-75.215691	0.466273	-90.794665
51521		0.558026	-0.426142	0.436755	-0.562366	-75.208358	0.466731	-90.803419
51522		0.557996	-0.426081	0.436773	-0.562427	-75.204084	0.467253	-90.813093
51523		0.557976	-0.426037	0.436782	-0.562473	-75.200626	0.467450	-90.819973
51524		0.557960	-0.425989	0.436792	-0.562518	-75.196679	0.468246	-90.826715
51525		0.557914	-0.425926	0.436852	-0.562565	-75.196563	0.471558	-90.838765
51526		0.557871	-0.425915	0.436893	-0.562584	-75.199694	0.471769	-90.845305
51527		0.557853	-0.425886	0.436886	-0.562630	-75.196011	0.470076	-90.850512
51528		0.557826	-0.425850	0.436902	-0.562671	-75.194070	0.470062	-90.857499
51529		0.557798	-0.425803	0.436924	-0.562717	-75.191637	0.470822	-90.865559
51530		0.557800	-0.425756	0.436899	-0.562771	-75.184223	0.469767	-90.869969
51531		0.557815	-0.425739	0.436853	-0.562804	-75.177749	0.467037	-90.869684
51532		0.557840	-0.425707	0.436797	-0.562847	-75.168758	0.464695	-90.869568
51533		0.557816	-0.425705	0.436790	-0.562878	-75.167852	0.461602	-90.872896
51534		0.557813	-0.425690	0.436742	-0.562929	-75.161367	0.456890	-90.874704
51535		0.557805	-0.425668	0.436720	-0.562971	-75.156899	0.454497	-90.877880
51536		0.557805	-0.425635	0.436688	-0.563020	-75.150313	0.452162	-90.881036
51537		0.557796	-0.425598	0.436664	-0.563076	-75.144029	0.449817	-90.885877
51538		0.557781	-0.425557	0.436663	-0.563123	-75.139743	0.449366	-90.891757
51539		0.557793	-0.425505	0.436633	-0.563173	-75.131450	0.448974	-90.895367
51540		0.557799	-0.425434	0.436611	-0.563238	-75.122039	0.449246	-90.901425
51541		0.557781	-0.425382	0.436629	-0.563281	-75.118662	0.450802	-90.908841
51542		0.557804	-0.425358	0.436609	-0.563292	-75.114193	0.451681	-90.908217
51543		0.557823	-0.425331	0.436581	-0.563315	-75.108560	0.451427	-90.908394
51544		0.557833	-0.425291	0.436556	-0.563355	-75.101867	0.450979	-90.911002
51545		0.557847	-0.425272	0.436517	-0.563386	-75.095935	0.448959	-90.911193
51546		0.557865	-0.425262	0.436474	-0.563409	-75.090448	0.446552	-90.909890
51547		0.557863	-0.425235	0.436472	-0.563432	-75.087590	0.446985	-90.912626
51548		0.557872	-0.425210	0.436440	-0.563467	-75.081723	0.445251	-90.913981
51549		0.557862	-0.425160	0.436428	-0.563525	-75.075394	0.444434	-90.920126
51550		0.557848	-0.425117	0.436435	-0.563565	-75.071839	0.445080	-90.926097
51551		0.557864	-0.425084	0.436423	-0.563584	-75.067243	0.446279	-90.927312
51552		0.557860	-0.425043	0.436417	-0.563623	-75.062510	0.446456	-90.931785
51553		0.557863	-0.424996	0.436409	-0.563662	-75.056913	0.447159	-90.935930
51554		0.557859	-0.424955	0.436403	-0.563701	-75.052180	0.447339	-90.940402
51555		0.557854	-0.424930	0.436406	-0.563722	-75.049975	0.447903	-90.943555
51556		0.557869	-0.424927	0.436367	-0.563740	-75.045653	0.445475	-90.941856
51557		0.557907	-0.424902	0.436303	-0.563770	-75.036548	0.443430	-90.939472
51558		0.557929	-0.424841	0.436282	-0.563812	-75.028194	0.445075	-90.942690
51559		0.557939	-0.424775	0.436270	-0.563860	-75.020326	0.446685	-90.947764
51560		0.557962	-0.424752	0.436250	-0.563871	-75.015855	0.447572	-90.947136
51561		0.557995	-0.424729	0.436201	-0.563894	-75.008452	0.446407	-90.945161
51562		0.558022	-0.424690	0.436141	-0.563943	-74.998284	0.444123	-90.945441
51563		0.558016	-0.424656	0.436130	-0.563983	-74.993735	0.443331	-90.949558
51564		0.558020	-0.424631	0.436072	-0.564042	-74.985289	0.438530	-90.951393
51565		0.558053	-0.424604	0.436011	-0.564078	-74.976210	0.436282	-90.949906
51566		0.558042	-0.424570	0.435951	-0.564160	-74.966710	0.430135	-90.954580
51567		0.558064	-0.424522	0.435884	-0.564225	-74.954930	0.426897	-90.956394
51568		0.558081	-0.424472	0.435817	-0.564299	-74.942926	0.423128	-90.959147
51569		0.558102	-0.424405	0.435750	-0.564379	-74.929261	0.420287	-90.962865
51570		0.558106	-0.424352	0.435712	-0.564445	-74.919948	0.418223	-90.967573
51571		0.558124	-0.424293	0.435662	-0.564510	-74.908875	0.416654	-90.971033
51572		0.558140	-0.424235	0.435606	-0.564581	-74.897214	0.414154	-90.974641
51573		0.558167	-0.424176	0.435554	-0.564639	-74.885919	0.413178	-90.976837
51574		0.558178	-0.424143	0.435486	-0.564706	-74.875519	0.408275	-90.978703
51575		0.558192	-0.424105	0.435413	-0.564776	-74.864189	0.403308	-90.980556
51576		0.558204	-0.424048	0.435331	-0.564871	-74.849948	0.397741	-90.984652
51577		0.558205	-0.423992	0.435269	-0.564958	-74.838006	0.393283	-90.989870
51578		0.558217	-0.423924	0.435208	-0.565045	-74.824841	0.390068	-90.994914
51579		0.558203	-0.423882	0.435164	-0.565125	-74.816041	0.385464	-91.000936
51580		0.558193	-0.423846	0.435114	-0.565200	-74.807267	0.380430	-91.005703
51581		0.558187	-0.423774	0.435050	-0.565309	-74.793422	0.375381	-91.013364
51582		0.558171	-0.423713	0.435016	-0.565396	-74.783835	0.372148	-91.021276
51583		0.558132	-0.423661	0.434988	-0.565496	-74.775622	0.366914	-91.031383
51584		0.558125	-0.423605	0.434931	-0.565588	-74.764122	0.362133	-91.037710
51585		0.558097	-0.423562	0.434878	-0.565689	-74.754388	0.355186	-91.045428
51586		0.558078	-0.423521	0.434819	-0.565784	-74.744157	0.348505	-91.051907
51587		0.558040	-0.423477	0.434785	-0.565880	-74.736177	0.342633	-91.060976
51588		0.558008	-0.423433	0.434754	-0.565968	-74.728640	0.337655	-91.069406
51589		0.557957	-0.423387	0.434731	-0.566071	-74.721623	0.331642	-91.080333
51590		0.557896	-0.423344	0.434731	-0.566164	-74.717278	0.326818	-91.092391
51591		0.557857	-0.423321	0.434702	-0.566241	-74.712029	0.320772	-91.099572
51592		0.557799	-0.423277	0.434696	-0.566336	-74.706900	0.315808	-91.111264
51593		0.557740	-0.423227	0.434708	-0.566422	-74.703175	0.312671	-91.123715
51594		0.557689	-0.423184	0.434703	-0.566508	-74.698379	0.308469	-91.134368
51595		0.557651	-0.423145	0.434705	-0.566574	-74.694613	0.306095	-91.143056
51596		0.557588	-0.423118	0.434730	-0.566637	-74.694453	0.303197	-91.153732
51597		0.557539	-0.423073	0.434742	-0.566709	-74.691170	0.301009	-91.164264
51598		0.557484	-0.423044	0.434745	-0.566782	-74.688709	0.296743	-91.174119
51599		0.557452	-0.423003	0.434745	-0.566845	-74.684440	0.294815	-91.182230
51600		0.557427	-0.422961	0.434748	-0.566898	-74.680599	0.293828	-91.189493
51601		0.557382	-0.422932	0.434773	-0.566944	-74.680266	0.292912	-91.197998
51602		0.557346	-0.422901	0.434792	-0.566988	-74.679160	0.292180	-91.205590
51603		0.557302	-0.422864	0.434817	-0.567040	-74.677995	0.291427	-91.214859
51604		0.557280	-0.422856	0.434840	-0.567051	-74.679500	0.291809	-91.218449
51605		0.557241	-0.422841	0.434869	-0.567077	-74.681046	0.291427	-91.224774
51606		0.557204	-0.422824	0.434890	-0.567110	-74.681493	0.290480	-91.231203
51607		0.557175	-0.422803	0.434903	-0.567145	-74.680738	0.289565	-91.236999
51608		0.557142	-0.422784	0.434919	-0.567179	-74.680402	0.288475	-91.243063
51609		0.557115	-0.422759	0.434932	-0.567215	-74.679265	0.287869	-91.248971
51610		0.557097	-0.422749	0.434949	-0.567227	-74.679986	0.288109	-91.252195
51611		0.557067	-0.422716	0.434977	-0.567259	-74.679658	0.288919	-91.259200
51612		0.557031	-0.422697	0.435007	-0.567286	-74.680840	0.289054	-91.265718
51613		0.556994	-0.422664	0.435047	-0.567315	-74.681653	0.290459	-91.273513
51614		0.556973	-0.422646	0.435090	-0.567317	-74.684243	0.293183	-91.278044
51615		0.556940	-0.422622	0.435122	-0.567342	-74.685192	0.293997	-91.284455
51616		0.556930	-0.422604	0.435160	-0.567337	-74.687335	0.297333	-91.287584
51617		0.556934	-0.422593	0.435163	-0.567339	-74.686437	0.298345	-91.288158
51618		0.556940	-0.422599	0.435180	-0.567315	-74.688935	0.300489	-91.286741
51619		0.556958	-0.422568	0.435185	-0.567316	-74.686311	0.303674	-91.287484
51620		0.556978	-0.422523	0.435189	-0.567328	-74.682152	0.307309	-91.289318
51621		0.556988	-0.422508	0.435189	-0.567329	-74.680639	0.308697	-91.289511
51622		0.557003	-0.422475	0.435210	-0.567322	-74.679552	0.313334	-91.290635
51623		0.557020	-0.422447	0.435231	-0.567311	-74.678773	0.317848	-91.291273
51624		0.557014	-0.422417	0.435283	-0.567299	-74.681222	0.323381	-91.294981
51625		0.557012	-0.422383	0.435306	-0.567309	-74.680175	0.326440	-91.298488
51626		0.557038	-0.422321	0.435311	-0.567326	-74.674417	0.331234	-91.301210
51627		0.557031	-0.422247	0.435356	-0.567353	-74.671673	0.337360	-91.309284
51628		0.557022	-0.422193	0.435410	-0.567361	-74.671805	0.343478	-91.315681
51629		0.557033	-0.422149	0.435434	-0.567363	-74.669937	0.348246	-91.318403
51630		0.557072	-0.422083	0.435453	-0.567361	-74.665204	0.355811	-91.319902
51631		0.557079	-0.421984	0.435489	-0.567399	-74.659039	0.363056	-91.328566
51632		0.557119	-0.421902	0.435483	-0.567426	-74.650114	0.368729	-91.331445
51633		0.557142	-0.421805	0.435494	-0.567467	-74.641602	0.374922	-91.337868
51634		0.557168	-0.421712	0.435528	-0.567485	-74.635739	0.383544	-91.343544
51635		0.557218	-0.421615	0.435505	-0.567525	-74.623595	0.388999	-91.346454
51636		0.557271	-0.421528	0.435513	-0.567531	-74.615697	0.397444	-91.348106
51637		0.557314	-0.421482	0.435514	-0.567522	-74.611225	0.403188	-91.347036
51638		0.557346	-0.421434	0.435523	-0.567519	-74.607354	0.408522	-91.347548
51639		0.557355	-0.421381	0.435527	-0.567548	-74.602333	0.411284	-91.351659
51640		0.557380	-0.421331	0.435534	-0.567554	-74.598128	0.415865	-91.353208
51641		0.557430	-0.421295	0.435495	-0.567561	-74.590504	0.417941	-91.350253
51642		0.557484	-0.421226	0.435472	-0.567578	-74.581160	0.422791	-91.350105
51643		0.557513	-0.421126	0.435509	-0.567595	-74.574945	0.432349	-91.356073
51644		0.557561	-0.421054	0.435525	-0.567589	-74.569384	0.440717	-91.356920
51645		0.557595	-0.421009	0.435538	-0.567579	-74.566295	0.446695	-91.356822
51646		0.557651	-0.420966	0.435545	-0.567550	-74.562644	0.454147	-91.353852
51647		0.557689	-0.420901	0.435576	-0.567538	-74.559264	0.462782	-91.355327
51648		0.557710	-0.420843	0.435609	-0.567535	-74.556937	0.469845	-91.358177
51649		0.557759	-0.420798	0.435604	-0.567524	-74.551891	0.475528	-91.356286
51650		0.557787	-0.420760	0.435608	-0.567521	-74.548449	0.479746	-91.356302
51651		0.557792	-0.420699	0.435606	-0.567563	-74.542186	0.481860	-91.361585
51652		0.557809	-0.420642	0.435614	-0.567583	-74.537265	0.485877	-91.364927
51653		0.557813	-0.420575	0.435644	-0.567605	-74.533730	0.491350	-91.370856
51654		0.557802	-0.420535	0.435660	-0.567634	-74.531306	0.492986	-91.376113
51655		0.557769	-0.420470	0.435710	-0.567676	-74.529938	0.496774	-91.386591
51656		0.557743	-0.420421	0.435755	-0.567702	-74.529846	0.500280	-91.394555
51657		0.557728	-0.420363	0.435783	-0.567739	-74.526860	0.503305	-91.402233
51658		0.557703	-0.420299	0.435836	-0.567770	-74.525960	0.508115	-91.411448
51659		0.557681	-0.420263	0.435864	-0.567798	-74.525189	0.509748	-91.417853
51660		0.557665	-0.420228	0.435907	-0.567806	-74.526196	0.513638	-91.423253
51661		0.557656	-0.420186	0.435947	-0.567815	-74.526165	0.518036	-91.428373
51662		0.557649	-0.420165	0.435948	-0.567836	-74.524144	0.518049	-91.431249
51663		0.557636	-0.420133	0.435970	-0.567855	-74.523277	0.520031	-91.436013
51664		0.557621	-0.420127	0.435994	-0.567856	-74.525115	0.521174	-91.438545
51665		0.557598	-0.420097	0.436024	-0.567878	-74.525207	0.522782	-91.444382
51666		0.557597	-0.420112	0.436020	-0.567871	-74.526256	0.521832	-91.443044
51667		0.557638	-0.420103	0.435965	-0.567880	-74.519718	0.520548	-91.438643
51668		0.557599	-0.420072	0.435999	-0.567915	-74.520151	0.521068	-91.446665
51669		0.557585	-0.420070	0.435979	-0.567946	-74.517862	0.517806	-91.448709
51670		0.557600	-0.420069	0.435931	-0.567969	-74.512741	0.514373	-91.446898
51671		0.557592	-0.420058	0.435891	-0.568016	-74.507550	0.509914	-91.449014
51672		0.557560	-0.420057	0.435907	-0.568035	-74.509146	0.508437	-91.453129
51673		0.557537	-0.420078	0.435909	-0.568041	-74.511388	0.505819	-91.454049
51674		0.557527	-0.420087	0.435896	-0.568054	-74.510982	0.503229	-91.454420
51675		0.557500	-0.420095	0.435893	-0.568077	-74.511483	0.500152	-91.457156
51676		0.557468	-0.420094	0.435909	-0.568096	-74.513078	0.498676	-91.461270
51677		0.557441	-0.420119	0.435907	-0.568106	-74.515333	0.495141	-91.462347
51678		0.557402	-0.420119	0.435944	-0.568116	-74.519241	0.495019	-91.467277
51679		0.557356	-0.420153	0.435958	-0.568126	-74.523994	0.490941	-91.469936
51680		0.557306	-0.420195	0.435982	-0.568125	-74.530725	0.487230	-91.472233
51681		0.557260	-0.420215	0.435993	-0.568147	-74.533831	0.483356	-91.476211
51682		0.557214	-0.420244	0.435999	-0.568165	-74.537489	0.478663	-91.479218
51683		0.557171	-0.420278	0.435998	-0.568184	-74.540691	0.473357	-91.481529
51684		0.557129	-0.420304	0.435967	-0.568229	-74.540174	0.465347	-91.484304
51685		0.557117	-0.420326	0.435923	-0.568258	-74.537814	0.459110	-91.483748
51686		0.557085	-0.420314	0.435896	-0.568320	-74.533733	0.453618	-91.489068
51687		0.557071	-0.420326	0.435855	-0.568356	-74.530717	0.447809	-91.489655
51688		0.557065	-0.420345	0.435807	-0.568385	-74.527680	0.441681	-91.488630
51689		0.557035	-0.420370	0.435788	-0.568411	-74.528213	0.436214	-91.490132
51690		0.556998	-0.420404	0.435772	-0.568434	-74.529937	0.429987	-91.491556
51691		0.556959	-0.420431	0.435743	-0.568475	-74.529650	0.422418	-91.493901
51692		0.556944	-0.420465	0.435717	-0.568483	-74.530473	0.417413	-91.492526
51693		0.556888	-0.420477	0.435730	-0.568520	-74.532952	0.412949	-91.498562
51694		0.556855	-0.420520	0.435720	-0.568528	-74.536177	0.407427	-91.498546
51695		0.556815	-0.420520	0.435700	-0.568582	-74.534227	0.401540	-91.503616
51696		0.556775	-0.420533	0.435708	-0.568606	-74.536292	0.398018	-91.507508
51697		0.556745	-0.420536	0.435685	-0.568650	-74.534224	0.392770	-91.511056
51698		0.556716	-0.420545	0.435666	-0.568686	-74.533188	0.387760	-91.513772
51699		0.556684	-0.420586	0.435650	-0.568700	-74.535628	0.381789	-91.514017
51700		0.556653	-0.420579	0.435621	-0.568757	-74.531924	0.376124	-91.518574
51701		0.556630	-0.420593	0.435592	-0.568792	-74.530362	0.370554	-91.520200
51702		0.556603	-0.420588	0.435580	-0.568832	-74.528521	0.366851	-91.524171
51703		0.556590	-0.420588	0.435545	-0.568870	-74.525016	0.362100	-91.525769
51704		0.556577	-0.420596	0.435515	-0.568900	-74.522743	0.357566	-91.526723
51705		0.556560	-0.420597	0.435478	-0.568945	-74.518905	0.352140	-91.528812
51706		0.556564	-0.420595	0.435434	-0.568976	-74.514229	0.348127	-91.528410
51707		0.556540	-0.420617	0.435426	-0.568990	-74.515602	0.344415	-91.529453
51708		0.556522	-0.420647	0.435394	-0.569009	-74.515299	0.338531	-91.528749
51709		0.556504	-0.420638	0.435396	-0.569032	-74.514572	0.337302	-91.531934
51710		0.556487	-0.420658	0.435384	-0.569043	-74.515373	0.333748	-91.532171
51711		0.556468	-0.420665	0.435356	-0.569078	-74.513189	0.328887	-91.533942
51712		0.556448	-0.420669	0.435334	-0.569111	-74.511321	0.324681	-91.536022
51713		0.556438	-0.420684	0.435300	-0.569136	-74.509320	0.319765	-91.535963
51714		0.556435	-0.420692	0.435266	-0.569159	-74.506595	0.315847	-91.535519
51715		0.556430	-0.420719	0.435214	-0.569184	-74.503864	0.309341	-91.533573
51716		0.556434	-0.420742	0.435183	-0.569187	-74.503022	0.305939	-91.530925
51717		0.556416	-0.420785	0.435137	-0.569207	-74.502572	0.298328	-91.529011
51718		0.556429	-0.420810	0.435093	-0.569209	-74.500538	0.294465	-91.524876
51719		0.556400	-0.420828	0.435081	-0.569235	-74.501066	0.289833	-91.526974
51720		0.556382	-0.420828	0.435078	-0.569255	-74.500685	0.287773	-91.529231
51721		0.556378	-0.420842	0.435055	-0.569266	-74.499723	0.284655	-91.528368
51722		0.556388	-0.420846	0.435034	-0.569268	-74.498034	0.283494	-91.526704
51723		0.556382	-0.420861	0.435021	-0.569272	-74.498278	0.281172	-91.525906
51724		0.556367	-0.420895	0.434996	-0.569281	-74.499096	0.276181	-91.524522
51725		0.556390	-0.420912	0.434957	-0.569277	-74.496651	0.273912	-91.520099
51726		0.556383	-0.420932	0.434940	-0.569281	-74.497003	0.270973	-91.518935
51727		0.556393	-0.420966	0.434900	-0.569278	-74.496181	0.266827	-91.514472
51728		0.556416	-0.420983	0.434862	-0.569270	-74.494060	0.264835	-91.509793
51729		0.556430	-0.421000	0.434836	-0.569264	-74.493045	0.263091	-91.506413
51730		0.556440	-0.421014	0.434796	-0.569275	-74.490252	0.259604	-91.503807
51731		0.556473	-0.421022	0.434743	-0.569278	-74.485554	0.257147	-91.498917
51732		0.556481	-0.421030	0.434704	-0.569293	-74.482382	0.253846	-91.497076
51733		0.556475	-0.421045	0.434696	-0.569294	-74.483102	0.251975	-91.496413
51734		0.556483	-0.421043	0.434678	-0.569301	-74.481036	0.251001	-91.495513
51735		0.556484	-0.421037	0.434658	-0.569320	-74.478286	0.249287	-91.495991
51736		0.556494	-0.421020	0.434647	-0.569332	-74.475418	0.249619	-91.496349
51737		0.556486	-0.421018	0.434647	-0.569341	-74.475284	0.248973	-91.497572
51738		0.556486	-0.421020	0.434641	-0.569344	-74.474791	0.248274	-91.497391
51739		0.556482	-0.421025	0.434639	-0.569346	-74.475147	0.247499	-91.497423
51740		0.556486	-0.421036	0.434638	-0.569334	-74.476156	0.247499	-91.495800
51741		0.556487	-0.421016	0.434643	-0.569344	-74.474734	0.248672	-91.497667
51742		0.556501	-0.421007	0.434606	-0.569366	-74.469971	0.246543	-91.496724
51743		0.556483	-0.421026	0.434620	-0.569358	-74.473281	0.245699	-91.497147
51744		0.556506	-0.421025	0.434582	-0.569366	-74.469234	0.244132	-91.494403
51745		0.556537	-0.421010	0.434538	-0.569381	-74.463189	0.243117	-91.491924
51746		0.556562	-0.421033	0.434499	-0.569369	-74.461445	0.240942	-91.486479
51747		0.556591	-0.421040	0.434437	-0.569382	-74.455779	0.237345	-91.482064
51748		0.556590	-0.421044	0.434421	-0.569392	-74.454544	0.235578	-91.481795
51749		0.556601	-0.421055	0.434399	-0.569391	-74.453294	0.234006	-91.479336
51750		0.556616	-0.421095	0.434333	-0.569396	-74.450529	0.227642	-91.473494
51751		0.556654	-0.421116	0.434283	-0.569382	-74.447470	0.225666	-91.466626
51752		0.556686	-0.421088	0.434251	-0.569396	-74.441415	0.226387	-91.465275
51753		0.556712	-0.421081	0.434226	-0.569396	-74.438046	0.226541	-91.462731
51754		0.556764	-0.421097	0.434159	-0.569383	-74.432705	0.224431	-91.454452
51755		0.556795	-0.421095	0.434135	-0.569373	-74.430030	0.225071	-91.450731
51756		0.556825	-0.421125	0.434110	-0.569340	-74.430532	0.224663	-91.443929
51757		0.556871	-0.421143	0.434062	-0.569318	-74.427458	0.223671	-91.436373
51758		0.556890	-0.421164	0.434062	-0.569284	-74.429519	0.224977	-91.431907
51759		0.556912	-0.421183	0.434056	-0.569254	-74.430753	0.225886	-91.427317
51760		0.556925	-0.421222	0.434046	-0.569219	-74.433658	0.224955	-91.421864
51761		0.556945	-0.421277	0.434024	-0.569176	-74.436869	0.223074	-91.413947
51762		0.556944	-0.421316	0.434033	-0.569141	-74.441757	0.222739	-91.410336
51763		0.556918	-0.421382	0.434055	-0.569101	-74.450597	0.220476	-91.407195
51764		0.556930	-0.421404	0.434076	-0.569056	-74.454976	0.223126	-91.403535
51765		0.556906	-0.421455	0.434104	-0.569021	-74.463049	0.222161	-91.401712
51766		0.556887	-0.421483	0.434137	-0.568994	-74.469161	0.222795	-91.401474
51767		0.556881	-0.421514	0.434158	-0.568961	-74.474445	0.223417	-91.399298
51768		0.556874	-0.421539	0.434195	-0.568921	-74.480850	0.225731	-91.397752
51769		0.556862	-0.421570	0.434223	-0.568888	-74.486829	0.226454	-91.396197
51770		0.556844	-0.421617	0.434256	-0.568846	-74.494864	0.226669	-91.394020
51771		0.556842	-0.421672	0.434275	-0.568793	-74.502436	0.226706	-91.388987
51772		0.556824	-0.421739	0.434299	-0.568742	-74.511649	0.225433	-91.384783
51773		0.556819	-0.421782	0.434331	-0.568691	-74.519151	0.226922	-91.381256
51774		0.556781	-0.421835	0.434402	-0.568634	-74.531865	0.228889	-91.380961
51775		0.556754	-0.421929	0.434460	-0.568547	-74.547309	0.229316	-91.375424
51776		0.556780	-0.421993	0.434444	-0.568486	-74.552060	0.228406	-91.365871
51777		0.556772	-0.422051	0.434465	-0.568435	-74.559976	0.227942	-91.361293
51778		0.556744	-0.422127	0.434514	-0.568369	-74.572673	0.227968	-91.357486
51779		0.556732	-0.422212	0.434530	-0.568305	-74.582911	0.225929	-91.350830
51780		0.556716	-0.422275	0.434573	-0.568242	-74.593611	0.226803	-91.346802
51781		0.556671	-0.422327	0.434609	-0.568218	-74.602686	0.224671	-91.347398
51782		0.556645	-0.422388	0.434665	-0.568156	-74.614583	0.226002	-91.344853
51783		0.556621	-0.422456	0.434694	-0.568106	-74.624439	0.224607	-91.341279
51784		0.556602	-0.422527	0.434741	-0.568036	-74.636304	0.225436	-91.336842
51785		0.556593	-0.422591	0.434793	-0.567958	-74.648108	0.227899	-91.331879
51786		0.556591	-0.422644	0.434836	-0.567887	-74.657934	0.230509	-91.326954
51787		0.556581	-0.422724	0.434880	-0.567804	-74.670536	0.231706	-91.320432
51788		0.556566	-0.422795	0.434912	-0.567742	-74.680871	0.231337	-91.315548
51789		0.556556	-0.422887	0.434945	-0.567658	-74.693519	0.231054	-91.307843
51790		0.556521	-0.422985	0.435006	-0.567572	-74.709711	0.230953	-91.302808
51791		0.556508	-0.423081	0.435034	-0.567491	-74.722297	0.229770	-91.295074
51792		0.556500	-0.423174	0.435058	-0.567412	-74.734142	0.228675	-91.287123
51793		0.556473	-0.423264	0.435112	-0.567330	-74.748689	0.228913	-91.281927
51794		0.556451	-0.423354	0.435164	-0.567244	-74.763263	0.229481	-91.275906
51795		0.556435	-0.423427	0.435226	-0.567158	-74.776923	0.232042	-91.270893
51796		0.556414	-0.423505	0.435276	-0.567082	-74.789953	0.232843	-91.266048
51797		0.556400	-0.423619	0.435306	-0.566988	-74.804464	0.231220	-91.256764
51798		0.556396	-0.423687	0.435342	-0.566912	-74.815089	0.232551	-91.250577
51799		0.556391	-0.423732	0.435377	-0.566858	-74.823193	0.234245	-91.246983
51800		0.556380	-0.423789	0.435432	-0.566783	-74.834593	0.237147	-91.242780
51801		0.556386	-0.423864	0.435475	-0.566688	-74.846663	0.239898	-91.234753
51802		0.556393	-0.423923	0.435527	-0.566597	-74.857942	0.244169	-91.228124
51803		0.556418	-0.423965	0.435560	-0.566515	-74.865605	0.248754	-91.220754
51804		0.556435	-0.424009	0.435630	-0.566413	-74.877162	0.256145	-91.214450
51805		0.556452	-0.424066	0.435686	-0.566311	-74.888650	0.261840	-91.206749
51806		0.556503	-0.424100	0.435706	-0.566219	-74.894280	0.267965	-91.196817
51807		0.556532	-0.424126	0.435754	-0.566133	-74.901874	0.274947	-91.190570
51808		0.556591	-0.424140	0.435795	-0.566034	-74.907403	0.284372	-91.181732
51809		0.556639	-0.424127	0.435821	-0.565976	-74.908817	0.292126	-91.176830
51810		0.556693	-0.424103	0.435876	-0.565899	-74.912040	0.303572	-91.172331
51811		0.556770	-0.424073	0.435916	-0.565815	-74.913155	0.316072	-91.165346
51812		0.556841	-0.424039	0.435925	-0.565764	-74.910573	0.324883	-91.159641
51813		0.556915	-0.423998	0.435958	-0.565696	-74.909967	0.336659	-91.154166
51814		0.556979	-0.423931	0.435995	-0.565655	-74.906990	0.348514	-91.152480
51815		0.557074	-0.423866	0.436018	-0.565592	-74.902869	0.361981	-91.146699
51816		0.557160	-0.423777	0.436064	-0.565539	-74.898548	0.377615	-91.144353
51817		0.557235	-0.423679	0.436129	-0.565488	-74.895417	0.394282	-91.144268
51818		0.557327	-0.423565	0.436186	-0.565439	-74.889879	0.412327	-91.143688
51819		0.557410	-0.423438	0.436253	-0.565401	-74.883949	0.430851	-91.145418
51820		0.557470	-0.423330	0.436354	-0.565344	-74.883555	0.450030	-91.148111
51821		0.557539	-0.423216	0.436442	-0.565294	-74.881171	0.468924	-91.150453
51822		0.557594	-0.423092	0.436548	-0.565250	-74.879655	0.488649	-91.155445
51823		0.557650	-0.422964	0.436649	-0.565213	-74.877192	0.507929	-91.160662
51824		0.557685	-0.422836	0.436782	-0.565171	-74.878085	0.528562	-91.168622
51825		0.557729	-0.422738	0.436905	-0.565106	-74.880934	0.548077	-91.172513
51826		0.557773	-0.422626	0.437018	-0.565059	-74.881421	0.566962	-91.177721
51827		0.557805	-0.422489	0.437153	-0.565026	-74.881588	0.587754	-91.186940
51828		0.557839	-0.422362	0.437277	-0.564990	-74.881748	0.607323	-91.194807
51829		0.557883	-0.422244	0.437404	-0.564937	-74.882973	0.627888	-91.200641
51830		0.557917	-0.422119	0.437519	-0.564908	-74.882393	0.646390	-91.208414
51831		0.557912	-0.422012	0.437686	-0.564864	-74.888892	0.665867	-91.219420
51832		0.557951	-0.421891	0.437793	-0.564832	-74.887900	0.684055	-91.226067
51833		0.557974	-0.421773	0.437910	-0.564807	-74.888163	0.701507	-91.234583
51834		0.557985	-0.421641	0.438045	-0.564791	-74.888889	0.720031	-91.246000
51835		0.557981	-0.421511	0.438175	-0.564791	-74.889387	0.736587	-91.259129
51836		0.557990	-0.421373	0.438312	-0.564779	-74.889748	0.755298	-91.271311
51837		0.557979	-0.421228	0.438458	-0.564784	-74.890333	0.773231	-91.286646
51838		0.557973	-0.421103	0.438616	-0.564760	-74.894234	0.792299	-91.299503
51839		0.557978	-0.420970	0.438734	-0.564762	-74.893240	0.808623	-91.311667
51840		0.557990	-0.420834	0.438847	-0.564765	-74.891333	0.825069	-91.323300
51841		0.557987	-0.420719	0.438974	-0.564754	-74.893050	0.841022	-91.334732
51842		0.557976	-0.420587	0.439118	-0.564752	-74.894731	0.858324	-91.348933
51843		0.557976	-0.420466	0.439258	-0.564733	-74.897168	0.876031	-91.360676
51844		0.557989	-0.420346	0.439380	-0.564714	-74.897925	0.893137	-91.370465
51845		0.557997	-0.420240	0.439510	-0.564685	-74.900733	0.910149	-91.379700
51846		0.558011	-0.420119	0.439641	-0.564659	-74.902243	0.928324	-91.389583
51847		0.557997	-0.420017	0.439756	-0.564659	-74.903971	0.941544	-91.401225
51848		0.558005	-0.419924	0.439856	-0.564642	-74.905188	0.955165	-91.409156
51849		0.558007	-0.419819	0.439947	-0.564648	-74.904126	0.967624	-91.419010
51850		0.557994	-0.419724	0.440065	-0.564639	-74.907024	0.981078	-91.429822
51851		0.557988	-0.419637	0.440151	-0.564642	-74.907295	0.991714	-91.438971
51852		0.557980	-0.419568	0.440253	-0.564622	-74.910928	1.003366	-91.446626
51853		0.557960	-0.419507	0.440339	-0.564621	-74.913804	1.011794	-91.455151
51854		0.557967	-0.419436	0.440390	-0.564627	-74.912029	1.019712	-91.461077
51855		0.557933	-0.419370	0.440482	-0.564636	-74.915106	1.027727	-91.471643
51856		0.557929	-0.419333	0.440531	-0.564630	-74.916477	1.033306	-91.475763
51857		0.557949	-0.419285	0.440553	-0.564629	-74.913961	1.038918	-91.477910
51858		0.557949	-0.419242	0.440574	-0.564644	-74.911883	1.042281	-91.481882
51859		0.557948	-0.419223	0.440598	-0.564641	-74.912543	1.045165	-91.483945
51860		0.557961	-0.419230	0.440586	-0.564633	-74.911919	1.044921	-91.481605
51861		0.557956	-0.419214	0.440592	-0.564644	-74.910991	1.045641	-91.483711
51862		0.557932	-0.419212	0.440587	-0.564673	-74.910275	1.042843	-91.486984
51863		0.557935	-0.419213	0.440551	-0.564697	-74.906666	1.039467	-91.486514
51864		0.557934	-0.419209	0.440547	-0.564705	-74.905769	1.038973	-91.487096
51865		0.557932	-0.419193	0.440539	-0.564725	-74.903389	1.038485	-91.488885
51866		0.557955	-0.419191	0.440502	-0.564733	-74.899271	1.036962	-91.486131
51867		0.557976	-0.419182	0.440461	-0.564751	-74.894169	1.035210	-91.484312
51868		0.558025	-0.419201	0.440432	-0.564712	-74.892886	1.036452	-91.476262
51869		0.558046	-0.419228	0.440393	-0.564701	-74.891567	1.033812	-91.470991
51870		0.558070	-0.419245	0.440356	-0.564694	-74.889348	1.031868	-91.466302
51871		0.558088	-0.419286	0.440292	-0.564694	-74.886866	1.026026	-91.459870
51872		0.558125	-0.419349	0.440199	-0.564683	-74.883439	1.018393	-91.449083
51873		0.558157	-0.419426	0.440099	-0.564673	-74.880637	1.009155	-91.437636
51874		0.558179	-0.419490	0.440016	-0.564668	-74.878471	1.001037	-91.428603
51875		0.558199	-0.419565	0.439931	-0.564659	-74.877049	0.992229	-91.418896
51876		0.558229	-0.419618	0.439848	-0.564655	-74.873682	0.985098	-91.410002
51877		0.558258	-0.419683	0.439743	-0.564660	-74.869212	0.975429	-91.400087
51878		0.558281	-0.419753	0.439658	-0.564650	-74.867420	0.967129	-91.390288
51879		0.558321	-0.419829	0.439569	-0.564624	-74.865700	0.959723	-91.377803
51880		0.558355	-0.419924	0.439493	-0.564579	-74.867254	0.952636	-91.364363
51881		0.558403	-0.420029	0.439399	-0.564527	-74.867979	0.944754	-91.348081
51882		0.558449	-0.420120	0.439296	-0.564493	-74.866413	0.936206	-91.333465
51883		0.558513	-0.420231	0.439176	-0.564440	-74.864973	0.927126	-91.314488
51884		0.558547	-0.420337	0.439071	-0.564410	-74.864659	0.916660	-91.299997
51885		0.558603	-0.420411	0.438981	-0.564370	-74.862648	0.910837	-91.285695
51886		0.558655	-0.420470	0.438886	-0.564347	-74.858736	0.904762	-91.273252
51887		0.558700	-0.420531	0.438812	-0.564315	-74.857086	0.899785	-91.261610
51888		0.558760	-0.420645	0.438712	-0.564249	-74.858082	0.892325	-91.242989
51889		0.558859	-0.420711	0.438561	-0.564219	-74.848963	0.884772	-91.223910
51890		0.558909	-0.420779	0.438462	-0.564196	-74.845471	0.877580	-91.210968
51891		0.558980	-0.420852	0.438342	-0.564164	-74.840365	0.870368	-91.194782
51892		0.559082	-0.420925	0.438162	-0.564149	-74.828901	0.859916	-91.174728
51893		0.559158	-0.420978	0.438012	-0.564150	-74.818725	0.850691	-91.159816
51894		0.559226	-0.421034	0.437876	-0.564146	-74.810168	0.841951	-91.145752
51895		0.559313	-0.421078	0.437743	-0.564131	-74.800698	0.835672	-91.130269
51896		0.559386	-0.421120	0.437630	-0.564114	-74.793226	0.830179	-91.116892
51897		0.559441	-0.421148	0.437536	-0.564112	-74.786196	0.825199	-91.107130
51898		0.559505	-0.421154	0.437444	-0.564116	-74.777257	0.821870	-91.098448
51899		0.559577	-0.421165	0.437345	-0.564112	-74.768184	0.818691	-91.088033
51900		0.559620	-0.421188	0.437272	-0.564109	-74.762825	0.814776	-91.080285
51901		0.559653	-0.421222	0.437180	-0.564122	-74.756786	0.807707	-91.072825
51902		0.559702	-0.421213	0.437074	-0.564162	-74.744921	0.802045	-91.067292
51903		0.559763	-0.421223	0.436972	-0.564173	-74.735290	0.797405	-91.058584
51904		0.559825	-0.421212	0.436871	-0.564199	-74.723707	0.793425	-91.051754
51905		0.559852	-0.421225	0.436782	-0.564231	-74.715761	0.786686	-91.047006
51906		0.559890	-0.421220	0.436702	-0.564259	-74.707020	0.782488	-91.042643
51907		0.559934	-0.421177	0.436600	-0.564327	-74.692083	0.777569	-91.041173
51908		0.559938	-0.421143	0.436554	-0.564384	-74.683965	0.774256	-91.043878
51909		0.559971	-0.421105	0.436496	-0.564425	-74.674108	0.772718	-91.043345
51910		0.559991	-0.421066	0.436417	-0.564495	-74.662078	0.767810	-91.044527
51911		0.560004	-0.421018	0.436351	-0.564568	-74.650452	0.763821	-91.047415
51912		0.560023	-0.420971	0.436283	-0.564636	-74.638799	0.760166	-91.049455
51913		0.560046	-0.420910	0.436226	-0.564704	-74.626728	0.758238	-91.052493
51914		0.560080	-0.420849	0.436146	-0.564777	-74.612288	0.755306	-91.053960
51915		0.560123	-0.420804	0.436067	-0.564830	-74.599627	0.752676	-91.052847
51916		0.560136	-0.420733	0.436016	-0.564909	-74.587244	0.750830	-91.058046
51917		0.560134	-0.420674	0.435975	-0.564986	-74.577062	0.748265	-91.063905
51918		0.560141	-0.420578	0.435940	-0.565077	-74.563950	0.748229	-91.072262
51919		0.560158	-0.420487	0.435868	-0.565184	-74.547333	0.745206	-91.078908
51920		0.560158	-0.420402	0.435835	-0.565273	-74.535425	0.744191	-91.087123
51921		0.560149	-0.420314	0.435796	-0.565376	-74.522598	0.741995	-91.096626
51922		0.560153	-0.420217	0.435745	-0.565484	-74.507620	0.740030	-91.105568
51923		0.560153	-0.420099	0.435703	-0.565604	-74.491455	0.739270	-91.116907
51924		0.560162	-0.419974	0.435674	-0.565710	-74.476031	0.740801	-91.127703
51925		0.560151	-0.419859	0.435659	-0.565818	-74.462947	0.741499	-91.140275
51926		0.560162	-0.419748	0.435617	-0.565922	-74.447512	0.741604	-91.149446
51927		0.560153	-0.419603	0.435598	-0.566053	-74.431084	0.743040	-91.164619
51928		0.560147	-0.419447	0.435586	-0.566183	-74.414241	0.745845	-91.180368
51929		0.560145	-0.419321	0.435570	-0.566292	-74.399921	0.747575	-91.192848
51930		0.560147	-0.419172	0.435557	-0.566409	-74.383774	0.750951	-91.206792
51931		0.560145	-0.419006	0.435554	-0.566537	-74.366837	0.755273	-91.223087
51932		0.560158	-0.418859	0.435528	-0.566653	-74.349475	0.758213	-91.235546
51933		0.560181	-0.418721	0.435504	-0.566750	-74.333285	0.762151	-91.245783
51934		0.560216	-0.418572	0.435478	-0.566845	-74.315742	0.767391	-91.255543
51935		0.560226	-0.418425	0.435475	-0.566947	-74.300717	0.772362	-91.268493
51936		0.560251	-0.418295	0.435454	-0.567034	-74.285539	0.776564	-91.277698
51937		0.560284	-0.418155	0.435426	-0.567126	-74.268684	0.781091	-91.286853
51938		0.560322	-0.418009	0.435408	-0.567210	-74.252263	0.787224	-91.295926
51939		0.560355	-0.417857	0.435391	-0.567303	-74.235313	0.793227	-91.306399
51940		0.560395	-0.417724	0.435360	-0.567385	-74.218878	0.797929	-91.313847
51941		0.560431	-0.417579	0.435340	-0.567471	-74.202443	0.803803	-91.323134
51942		0.560471	-0.417449	0.435300	-0.567558	-74.185257	0.807453	-91.330490
51943		0.560503	-0.417321	0.435265	-0.567648	-74.168910	0.810943	-91.338652
51944		0.560556	-0.417228	0.435221	-0.567698	-74.155048	0.814329	-91.340730
51945		0.560611	-0.417113	0.435174	-0.567764	-74.138765	0.818385	-91.344655
51946		0.560654	-0.417005	0.435141	-0.567826	-74.124594	0.822476	-91.349385
51947		0.560705	-0.416904	0.435093	-0.567887	-74.109550	0.825608	-91.352596
51948		0.560765	-0.416832	0.435050	-0.567913	-74.097907	0.829299	-91.351693
51949		0.560841	-0.416745	0.435012	-0.567932	-74.085294	0.835333	-91.350322
51950		0.560901	-0.416641	0.434966	-0.567983	-74.070231	0.839721	-91.352531
51951		0.560966	-0.416526	0.434897	-0.568056	-74.051674	0.842530	-91.355124
51952		0.561063	-0.416418	0.434801	-0.568113	-74.031002	0.845504	-91.352941
51953		0.561147	-0.416317	0.434716	-0.568169	-74.012079	0.848183	-91.351766
51954		0.561207	-0.416226	0.434673	-0.568210	-73.998543	0.852324	-91.352793
51955		0.561256	-0.416121	0.434621	-0.568278	-73.982768	0.855057	-91.356517
51956		0.561306	-0.416015	0.434589	-0.568330	-73.968926	0.859907	-91.360195
51957		0.561375	-0.415916	0.434520	-0.568388	-73.951932	0.862574	-91.360717
51958		0.561427	-0.415801	0.434453	-0.568471	-73.933515	0.864375	-91.364951
51959		0.561479	-0.415682	0.434404	-0.568545	-73.916670	0.868035	-91.369609
51960		0.561536	-0.415567	0.434362	-0.568605	-73.900876	0.872828	-91.373331
51961		0.561592	-0.415450	0.434328	-0.568660	-73.885784	0.878437	-91.377195
51962		0.561626	-0.415359	0.434309	-0.568708	-73.874729	0.882563	-91.381440
51963		0.561668	-0.415258	0.434287	-0.568757	-73.862445	0.887471	-91.385604
51964		0.561730	-0.415160	0.434239	-0.568804	-73.847749	0.891695	-91.387023
51965		0.561761	-0.415064	0.434229	-0.568850	-73.837205	0.896557	-91.392087
51966		0.561793	-0.414972	0.434193	-0.568915	-73.824280	0.898766	-91.396921
51967		0.561844	-0.414900	0.434143	-0.568955	-73.811987	0.900867	-91.397154
51968		0.561887	-0.414801	0.434090	-0.569024	-73.796682	0.902695	-91.400915
51969		0.561930	-0.414689	0.434033	-0.569107	-73.779675	0.904517	-91.406082
51970		0.561963	-0.414602	0.433995	-0.569167	-73.767116	0.906541	-91.410146
51971		0.562012	-0.414522	0.433933	-0.569224	-73.752852	0.907583	-91.411406
51972		0.562071	-0.414431	0.433849	-0.569296	-73.735144	0.907588	-91.412477
51973		0.562138	-0.414343	0.433751	-0.569369	-73.716166	0.906894	-91.412235
51974		0.562192	-0.414276	0.433654	-0.569438	-73.699635	0.904458	-91.411555
51975		0.562248	-0.414238	0.433564	-0.569479	-73.686461	0.901951	-91.408017
51976		0.562290	-0.414185	0.433474	-0.569544	-73.671923	0.898650	-91.407558
51977		0.562343	-0.414129	0.433358	-0.569622	-73.654361	0.893667	-91.406126
51978		0.562408	-0.414072	0.433236	-0.569691	-73.636219	0.889532	-91.403121
51979		0.562445	-0.414024	0.433141	-0.569761	-73.621634	0.885082	-91.402837
51980		0.562474	-0.413971	0.433071	-0.569825	-73.609111	0.882366	-91.404214
51981		0.562539	-0.413915	0.432966	-0.569881	-73.592797	0.879884	-91.401009
51982		0.562609	-0.413868	0.432850	-0.569934	-73.576140	0.876420	-91.396559
51983		0.562640	-0.413841	0.432776	-0.569979	-73.565790	0.872838	-91.395088
51984		0.562677	-0.413829	0.432698	-0.570011	-73.556618	0.868882	-91.391468
51985		0.562728	-0.413825	0.432598	-0.570039	-73.545903	0.863935	-91.385211
51986		0.562773	-0.413798	0.432498	-0.570091	-73.532866	0.858930	-91.381970
51987		0.562818	-0.413766	0.432388	-0.570153	-73.518306	0.853323	-91.379215
51988		0.562871	-0.413769	0.432268	-0.570189	-73.506342	0.846281	-91.372068
51989		0.562923	-0.413772	0.432157	-0.570220	-73.495147	0.840056	-91.365155
51990		0.562967	-0.413747	0.432047	-0.570278	-73.481359	0.833996	-91.361835
51991		0.563007	-0.413735	0.431963	-0.570312	-73.471431	0.829691	-91.357871
51992		0.563044	-0.413731	0.431874	-0.570345	-73.461873	0.824482	-91.353407
51993		0.563069	-0.413732	0.431788	-0.570385	-73.453087	0.818189	-91.350107
51994		0.563097	-0.413701	0.431699	-0.570447	-73.440951	0.812907	-91.349388
51995		0.563137	-0.413663	0.431588	-0.570518	-73.425713	0.806846	-91.347753
51996		0.563175	-0.413648	0.431487	-0.570568	-73.413879	0.800848	-91.344384
51997		0.563201	-0.413636	0.431381	-0.570633	-73.401694	0.792980	-91.342202
51998		0.563234	-0.413599	0.431304	-0.570683	-73.390273	0.789687	-91.341293
51999		0.563230	-0.413587	0.431215	-0.570764	-73.379895	0.780663	-91.343041
52000		0.563236	-0.413557	0.431135	-0.570840	-73.368696	0.774181	-91.345115
52001		0.563213	-0.413514	0.431091	-0.570927	-73.359872	0.768891	-91.352099
52002		0.563201	-0.413518	0.431039	-0.570975	-73.354895	0.762387	-91.353244
52003		0.563226	-0.413501	0.430911	-0.571060	-73.340134	0.752452	-91.351702
52004		0.563265	-0.413444	0.430773	-0.571166	-73.320307	0.744172	-91.352035
52005		0.563266	-0.413390	0.430695	-0.571264	-73.306848	0.738118	-91.357068
52006		0.563278	-0.413350	0.430564	-0.571379	-73.289519	0.727443	-91.359293
52007		0.563291	-0.413299	0.430449	-0.571490	-73.272599	0.718703	-91.362405
52008		0.563291	-0.413242	0.430354	-0.571603	-73.257269	0.710992	-91.367798
52009		0.563299	-0.413188	0.430258	-0.571706	-73.242019	0.703810	-91.371902
52010		0.563302	-0.413156	0.430162	-0.571799	-73.228941	0.695438	-91.374591
52011		0.563311	-0.413121	0.430062	-0.571890	-73.215273	0.687361	-91.376663
52012		0.563337	-0.413083	0.429943	-0.571981	-73.199347	0.679216	-91.376897
52013		0.563342	-0.413062	0.429847	-0.572064	-73.187393	0.670663	-91.378236
52014		0.563346	-0.413049	0.429750	-0.572142	-73.176204	0.661830	-91.378988
52015		0.563360	-0.413030	0.429618	-0.572241	-73.160809	0.650535	-91.378931
52016		0.563368	-0.413025	0.429496	-0.572329	-73.147682	0.639272	-91.378409
52017		0.563393	-0.413029	0.429341	-0.572417	-73.132215	0.626011	-91.374785
52018		0.563408	-0.413023	0.429189	-0.572521	-73.115992	0.612392	-91.373404
52019		0.563409	-0.413039	0.429045	-0.572616	-73.102891	0.597619	-91.371768
52020		0.563435	-0.413054	0.428879	-0.572704	-73.087337	0.583079	-91.366978
52021		0.563441	-0.413051	0.428725	-0.572816	-73.071266	0.568270	-91.366401
52022		0.563475	-0.413064	0.428538	-0.572913	-73.053372	0.552428	-91.360833
52023		0.563492	-0.413046	0.428377	-0.573030	-73.035084	0.538449	-91.360399
52024		0.563516	-0.413043	0.428201	-0.573139	-73.016888	0.523338	-91.357488
52025		0.563539	-0.413060	0.428008	-0.573250	-72.998677	0.505660	-91.353013
52026		0.563572	-0.413061	0.427810	-0.573364	-72.978507	0.489048	-91.348563
52027		0.563603	-0.413056	0.427612	-0.573484	-72.957878	0.472402	-91.345048
52028		0.563641	-0.413089	0.427401	-0.573581	-72.939580	0.453864	-91.337055
52029		0.563683	-0.413113	0.427179	-0.573687	-72.919255	0.435040	-91.329287
52030		0.563707	-0.413133	0.426986	-0.573793	-72.901448	0.417360	-91.324304
52031		0.563747	-0.413154	0.426758	-0.573909	-72.880186	0.397707	-91.317175
52032		0.563778	-0.413172	0.426543	-0.574025	-72.860042	0.378727	-91.311423
52033		0.563806	-0.413193	0.426333	-0.574138	-72.840691	0.359681	-91.305860
52034		0.563837	-0.413211	0.426118	-0.574254	-72.820550	0.340706	-91.300118
52035		0.563858	-0.413230	0.425902	-0.574380	-72.800377	0.320493	-91.295533
52036		0.563890	-0.413248	0.425687	-0.574496	-72.780240	0.301523	-91.289801
52037		0.563933	-0.413268	0.425448	-0.574616	-72.757882	0.281158	-91.282280
52038		0.563957	-0.413307	0.425214	-0.574738	-72.737804	0.258888	-91.275508
52039		0.563963	-0.413346	0.425012	-0.574852	-72.721214	0.238152	-91.271025
52040		0.563963	-0.413406	0.424834	-0.574941	-72.708934	0.218465	-91.265328
52041		0.563964	-0.413459	0.424646	-0.575040	-72.695116	0.198183	-91.260112
52042		0.563945	-0.413523	0.424483	-0.575133	-72.684889	0.178156	-91.256516
52043		0.563922	-0.413599	0.424328	-0.575216	-72.676633	0.158028	-91.252299
52044		0.563895	-0.413678	0.424188	-0.575289	-72.670276	0.139028	-91.248295
52045		0.563859	-0.413749	0.424053	-0.575373	-72.663542	0.119879	-91.246290
52046		0.563808	-0.413838	0.423958	-0.575429	-72.662696	0.102687	-91.244456
52047		0.563746	-0.413917	0.423860	-0.575505	-72.660595	0.084555	-91.244908
52048		0.563670	-0.414027	0.423779	-0.575559	-72.663364	0.065821	-91.244257
52049		0.563588	-0.414131	0.423720	-0.575609	-72.667675	0.048826	-91.245022
52050		0.563508	-0.414221	0.423664	-0.575664	-72.670848	0.032802	-91.246811
52051		0.563418	-0.414321	0.423609	-0.575721	-72.675270	0.015507	-91.248979
52052		0.563323	-0.414390	0.423581	-0.575784	-72.679309	0.001596	-91.254601
52053		0.563241	-0.414429	0.423544	-0.575864	-72.679318	-0.011136	-91.261556
52054		0.563153	-0.414446	0.423524	-0.575952	-72.679115	-0.022032	-91.271295
52055		0.563037	-0.414465	0.423529	-0.576049	-72.681402	-0.033192	-91.284518
52056		0.562942	-0.414470	0.423537	-0.576131	-72.682762	-0.041458	-91.296281
52057		0.562853	-0.414449	0.423549	-0.576225	-72.681811	-0.048094	-91.309714
52058		0.562769	-0.414400	0.423560	-0.576334	-72.678137	-0.053466	-91.325250
52059		0.562680	-0.414385	0.423588	-0.576411	-72.679424	-0.058659	-91.338169
52060		0.562623	-0.414351	0.423594	-0.576487	-72.676689	-0.062397	-91.348689
52061		0.562564	-0.414322	0.423598	-0.576562	-72.674251	-0.066631	-91.359110
52062		0.562505	-0.414283	0.423606	-0.576642	-72.671146	-0.070163	-91.370397
52063		0.562455	-0.414231	0.423626	-0.576712	-72.668092	-0.071227	-91.381696
52064		0.562416	-0.414179	0.423638	-0.576780	-72.664086	-0.072111	-91.391805
52065		0.562384	-0.414119	0.423615	-0.576870	-72.655819	-0.075470	-91.401482
52066		0.562380	-0.414057	0.423578	-0.576947	-72.645840	-0.077546	-91.408043
52067		0.562379	-0.414006	0.423546	-0.577007	-72.637526	-0.079161	-91.412909
52068		0.562360	-0.413957	0.423531	-0.577073	-72.631085	-0.080941	-91.420093
52069		0.562325	-0.413929	0.423525	-0.577131	-72.627709	-0.083921	-91.427283
52070		0.562299	-0.413889	0.423520	-0.577189	-72.623220	-0.085654	-91.434393
52071		0.562268	-0.413855	0.423524	-0.577241	-72.620215	-0.087144	-91.441627
52072		0.562244	-0.413853	0.423518	-0.577269	-72.619519	-0.089853	-91.444826
52073		0.562228	-0.413832	0.423490	-0.577321	-72.614506	-0.093546	-91.448906
52074		0.562201	-0.413815	0.423466	-0.577376	-72.610397	-0.097856	-91.453920
52075		0.562198	-0.413810	0.423424	-0.577414	-72.605606	-0.102230	-91.454851
52076		0.562173	-0.413787	0.423387	-0.577482	-72.599578	-0.107502	-91.460215
52077		0.562158	-0.413775	0.423361	-0.577524	-72.595787	-0.111062	-91.463353
52078		0.562130	-0.413773	0.423330	-0.577575	-72.592447	-0.116698	-91.467109
52079		0.562116	-0.413744	0.423275	-0.577650	-72.583858	-0.122581	-91.471622
52080		0.562104	-0.413715	0.423220	-0.577723	-72.575450	-0.128217	-91.475948
52081		0.562066	-0.413734	0.423211	-0.577753	-72.576405	-0.133317	-91.479026
52082		0.562060	-0.413745	0.423173	-0.577779	-72.573673	-0.138048	-91.478811
52083		0.562060	-0.413719	0.423126	-0.577833	-72.566172	-0.141899	-91.481343
52084		0.562091	-0.413726	0.423078	-0.577832	-72.562028	-0.143925	-91.476680
52085		0.562116	-0.413741	0.423012	-0.577845	-72.556774	-0.148552	-91.471971
52086		0.562133	-0.413746	0.422952	-0.577869	-72.551205	-0.153057	-91.469328
52087		0.562183	-0.413684	0.422868	-0.577926	-72.536563	-0.154588	-91.468742
52088		0.562240	-0.413650	0.422750	-0.577981	-72.521169	-0.159827	-91.464594
52089		0.562317	-0.413601	0.422608	-0.578046	-72.501830	-0.165073	-91.459398
52090		0.562403	-0.413555	0.422480	-0.578088	-72.484323	-0.168121	-91.452615
52091		0.562493	-0.413490	0.422340	-0.578150	-72.463553	-0.171445	-91.447233
52092		0.562605	-0.413442	0.422197	-0.578179	-72.444334	-0.173431	-91.437322
52093		0.562716	-0.413394	0.422063	-0.578203	-72.425969	-0.174575	-91.427503
52094		0.562835	-0.413370	0.421904	-0.578221	-72.407463	-0.178431	-91.414453
52095		0.562954	-0.413340	0.421763	-0.578229	-72.390174	-0.180141	-91.401841
52096		0.563082	-0.413311	0.421601	-0.578244	-72.370841	-0.183202	-91.388167
52097		0.563206	-0.413292	0.421432	-0.578259	-72.351847	-0.187589	-91.373898
52098		0.563325	-0.413267	0.421282	-0.578271	-72.334101	-0.190409	-91.360917
52099		0.563437	-0.413257	0.421116	-0.578289	-72.316386	-0.195909	-91.347418
52100		0.563557	-0.413239	0.420955	-0.578302	-72.298252	-0.199983	-91.333602
52101		0.563690	-0.413209	0.420780	-0.578322	-72.277510	-0.203826	-91.319351
52102		0.563793	-0.413174	0.420629	-0.578356	-72.258734	-0.207877	-91.309231
52103		0.563895	-0.413145	0.420518	-0.578358	-72.244622	-0.208321	-91.298825
52104		0.563997	-0.413107	0.420400	-0.578372	-72.228914	-0.209120	-91.289250
52105		0.564078	-0.413084	0.420297	-0.578384	-72.216153	-0.210968	-91.281022
52106		0.564165	-0.413068	0.420180	-0.578395	-72.202837	-0.213778	-91.271161
52107		0.564226	-0.413063	0.420085	-0.578410	-72.192602	-0.217346	-91.263932
52108		0.564269	-0.413061	0.419988	-0.578439	-72.182658	-0.222810	-91.258449
52109		0.564334	-0.413078	0.419858	-0.578457	-72.171231	-0.230100	-91.248467
52110		0.564370	-0.413097	0.419742	-0.578493	-72.161336	-0.238862	-91.241942
52111		0.564392	-0.413098	0.419665	-0.578526	-72.153734	-0.244344	-91.239007
52112		0.564406	-0.413113	0.419600	-0.578550	-72.148585	-0.249991	-91.235875
52113		0.564400	-0.413175	0.419551	-0.578547	-72.149739	-0.257450	-91.230679
52114		0.564413	-0.413226	0.419469	-0.578557	-72.146500	-0.265971	-91.224268
52115		0.564381	-0.413288	0.419415	-0.578583	-72.147280	-0.276336	-91.222474
52116		0.564345	-0.413323	0.419398	-0.578605	-72.148972	-0.282507	-91.223771
52117		0.564303	-0.413400	0.419328	-0.578643	-72.149529	-0.295992	-91.222011
52118		0.564247	-0.413451	0.419288	-0.578689	-72.150604	-0.306885	-91.224358
52119		0.564208	-0.413486	0.419271	-0.578715	-72.152364	-0.313322	-91.226171
52120		0.564150	-0.413543	0.419245	-0.578749	-72.155357	-0.323255	-91.228158
52121		0.564102	-0.413584	0.419231	-0.578778	-72.157994	-0.330486	-91.230599
52122		0.564041	-0.413653	0.419230	-0.578787	-72.164823	-0.338500	-91.231867
52123		0.563993	-0.413718	0.419211	-0.578802	-72.169327	-0.347071	-91.231953
52124		0.563930	-0.413795	0.419214	-0.578806	-72.177317	-0.355168	-91.232793
52125		0.563872	-0.413866	0.419187	-0.578831	-72.181610	-0.365600	-91.233499
52126		0.563787	-0.413945	0.419190	-0.578856	-72.189760	-0.375919	-91.237052
52127		0.563717	-0.414013	0.419188	-0.578876	-72.196375	-0.384871	-91.239530
52128		0.563639	-0.414081	0.419191	-0.578902	-72.203328	-0.394185	-91.243227
52129		0.563546	-0.414157	0.419201	-0.578930	-72.211951	-0.404390	-91.247941
52130		0.563449	-0.414229	0.419219	-0.578960	-72.220948	-0.414049	-91.253711
52131		0.563357	-0.414306	0.419219	-0.578995	-72.228580	-0.425293	-91.258221
52132		0.563272	-0.414384	0.419231	-0.579013	-72.237484	-0.434566	-91.261827
52133		0.563179	-0.414433	0.419250	-0.579054	-72.244372	-0.443023	-91.269195
52134		0.563090	-0.414466	0.419264	-0.579106	-72.249111	-0.451094	-91.277495
52135		0.562997	-0.414531	0.419286	-0.579135	-72.257634	-0.459806	-91.283411
52136		0.562915	-0.414600	0.419294	-0.579160	-72.265373	-0.468993	-91.287437
52137		0.562844	-0.414657	0.419294	-0.579187	-72.271080	-0.477494	-91.291068
52138		0.562774	-0.414700	0.419294	-0.579225	-72.275301	-0.485506	-91.296094
52139		0.562692	-0.414739	0.419299	-0.579274	-72.279606	-0.494096	-91.303049
52140		0.562629	-0.414782	0.419309	-0.579297	-72.284920	-0.500354	-91.307092
52141		0.562563	-0.414822	0.419329	-0.579317	-72.290989	-0.505851	-91.311685
52142		0.562503	-0.414844	0.419334	-0.579356	-72.293612	-0.511730	-91.317351
52143		0.562430	-0.414857	0.419363	-0.579396	-72.297899	-0.516158	-91.325508
52144		0.562371	-0.414877	0.419377	-0.579429	-72.301280	-0.520996	-91.331237
52145		0.562306	-0.414891	0.419394	-0.579471	-72.304265	-0.525928	-91.338377
52146		0.562228	-0.414913	0.419433	-0.579502	-72.310448	-0.530075	-91.346242
52147		0.562157	-0.414927	0.419461	-0.579541	-72.314629	-0.534470	-91.354093
52148		0.562074	-0.414966	0.419499	-0.579566	-72.322373	-0.539828	-91.361036
52149		0.562011	-0.414987	0.419532	-0.579588	-72.327791	-0.543150	-91.367295
52150		0.561950	-0.415001	0.419548	-0.579626	-72.330800	-0.547779	-91.373791
52151		0.561889	-0.415015	0.419590	-0.579644	-72.336395	-0.549787	-91.380255
52152		0.561845	-0.415010	0.419612	-0.579674	-72.338145	-0.551572	-91.386350
52153		0.561806	-0.415004	0.419632	-0.579702	-72.339559	-0.553093	-91.391950
52154		0.561764	-0.414996	0.419673	-0.579719	-72.342831	-0.552799	-91.398175
52155		0.561725	-0.414974	0.419724	-0.579736	-72.345812	-0.550762	-91.405286
52156		0.561702	-0.414971	0.419728	-0.579757	-72.345886	-0.552401	-91.408541
52157		0.561696	-0.414957	0.419744	-0.579761	-72.346177	-0.550879	-91.410583
52158		0.561696	-0.414952	0.419748	-0.579762	-72.346097	-0.550294	-91.411129
52159		0.561701	-0.414924	0.419759	-0.579769	-72.344435	-0.547904	-91.413180
52160		0.561714	-0.414909	0.419765	-0.579763	-72.343498	-0.545601	-91.412833
52161		0.561737	-0.414881	0.419768	-0.579759	-72.340968	-0.542214	-91.412550
52162		0.561754	-0.414856	0.419778	-0.579752	-72.339631	-0.538785	-91.412696
52163		0.561763	-0.414816	0.419791	-0.579764	-72.336822	-0.535459	-91.415478
52164		0.561772	-0.414794	0.419822	-0.579748	-72.337833	-0.530752	-91.416372
52165		0.561807	-0.414779	0.419794	-0.579745	-72.333547	-0.529744	-91.413188
52166		0.561849	-0.414766	0.419792	-0.579715	-72.332029	-0.525545	-91.409021
52167		0.561872	-0.414761	0.419807	-0.579685	-72.333151	-0.521734	-91.406574
52168		0.561900	-0.414737	0.419814	-0.579671	-72.331356	-0.517712	-91.405333
52169		0.561947	-0.414724	0.419804	-0.579642	-72.329035	-0.513818	-91.400487
52170		0.561977	-0.414712	0.419797	-0.579625	-72.327212	-0.511249	-91.397641
52171		0.562004	-0.414678	0.419787	-0.579632	-72.322766	-0.508649	-91.397480
52172		0.562051	-0.414640	0.419797	-0.579606	-72.320082	-0.501991	-91.395070
52173		0.562081	-0.414615	0.419775	-0.579611	-72.315269	-0.500575	-91.393607
52174		0.562121	-0.414571	0.419761	-0.579613	-72.309566	-0.496618	-91.392539
52175		0.562140	-0.414543	0.419776	-0.579604	-72.308303	-0.492541	-91.392796
52176		0.562185	-0.414497	0.419757	-0.579607	-72.301806	-0.488703	-91.391387
52177		0.562219	-0.414462	0.419738	-0.579612	-72.296457	-0.486150	-91.390223
52178		0.562265	-0.414403	0.419717	-0.579626	-72.288434	-0.482016	-91.390011
52179		0.562299	-0.414357	0.419692	-0.579643	-72.281250	-0.479740	-91.389947
52180		0.562347	-0.414303	0.419669	-0.579653	-72.273593	-0.475813	-91.388964
52181		0.562398	-0.414234	0.419648	-0.579668	-72.264532	-0.470894	-91.388927
52182		0.562424	-0.414179	0.419643	-0.579685	-72.258556	-0.467112	-91.390781
52183		0.562454	-0.414118	0.419631	-0.579708	-72.251312	-0.463431	-91.392702
52184		0.562476	-0.414074	0.419612	-0.579732	-72.244971	-0.461811	-91.393996
52185		0.562498	-0.414028	0.419582	-0.579765	-72.237460	-0.461192	-91.395498
52186		0.562515	-0.413967	0.419569	-0.579802	-72.230022	-0.458948	-91.399100
52187		0.562539	-0.413909	0.419554	-0.579831	-72.222748	-0.456218	-91.401576
52188		0.562565	-0.413855	0.419540	-0.579854	-72.216010	-0.453469	-91.403362
52189		0.562561	-0.413819	0.419533	-0.579889	-72.211674	-0.453386	-91.407294
52190		0.562571	-0.413756	0.419518	-0.579935	-72.203902	-0.451847	-91.411940
52191		0.562569	-0.413680	0.419500	-0.580004	-72.194555	-0.451317	-91.419383
52192		0.562564	-0.413631	0.419507	-0.580039	-72.190326	-0.449510	-91.424623
52193		0.562559	-0.413599	0.419504	-0.580069	-72.186787	-0.449248	-91.428427
52194		0.562567	-0.413553	0.419472	-0.580117	-72.179014	-0.450077	-91.431745
52195		0.562587	-0.413492	0.419442	-0.580163	-72.169925	-0.449213	-91.434973
52196		0.562588	-0.413469	0.419422	-0.580193	-72.165630	-0.450311	-91.437004
52197		0.562591	-0.413440	0.419375	-0.580244	-72.157939	-0.453771	-91.439322
52198		0.562584	-0.413396	0.419353	-0.580298	-72.151420	-0.455068	-91.444366
52199		0.562570	-0.413350	0.419317	-0.580371	-72.143111	-0.458521	-91.450640
52200		0.562580	-0.413307	0.419252	-0.580439	-72.132253	-0.462569	-91.453423
52201		0.562580	-0.413254	0.419219	-0.580500	-72.123735	-0.464090	-91.458331
52202		0.562564	-0.413161	0.419217	-0.580583	-72.114264	-0.462788	-91.469255
52203		0.562570	-0.413083	0.419211	-0.580637	-72.105941	-0.460192	-91.475855
52204		0.562565	-0.413045	0.419188	-0.580686	-72.099786	-0.461690	-91.480128
52205		0.562572	-0.412995	0.419152	-0.580740	-72.091216	-0.462947	-91.483955
52206		0.562552	-0.412937	0.419158	-0.580797	-72.085954	-0.462333	-91.492051
52207		0.562536	-0.412895	0.419156	-0.580844	-72.081625	-0.462615	-91.498134
52208		0.562533	-0.412869	0.419120	-0.580890	-72.075434	-0.465563	-91.500803
52209		0.562515	-0.412831	0.419101	-0.580949	-72.069661	-0.467918	-91.506834
52210		0.562479	-0.412810	0.419100	-0.580999	-72.067537	-0.470657	-91.513361
52211		0.562457	-0.412797	0.419091	-0.581037	-72.065283	-0.473223	-91.517581
52212		0.562436	-0.412774	0.419080	-0.581081	-72.061904	-0.475487	-91.522381
52213		0.562409	-0.412725	0.419076	-0.581146	-72.056547	-0.476873	-91.530571
52214		0.562384	-0.412682	0.419089	-0.581190	-72.053604	-0.476435	-91.537806
52215		0.562350	-0.412628	0.419099	-0.581254	-72.049293	-0.476917	-91.547283
52216		0.562322	-0.412596	0.419098	-0.581305	-72.045978	-0.478639	-91.553962
52217		0.562295	-0.412584	0.419116	-0.581325	-72.046708	-0.478838	-91.558453
52218		0.562285	-0.412563	0.419092	-0.581368	-72.042102	-0.481540	-91.561802
52219		0.562284	-0.412526	0.419075	-0.581408	-72.036664	-0.481994	-91.565430
52220		0.562281	-0.412529	0.419033	-0.581439	-72.032749	-0.486573	-91.565638
52221		0.562327	-0.412487	0.418998	-0.581450	-72.025019	-0.484360	-91.563653
52222		0.562336	-0.412451	0.418987	-0.581475	-72.020296	-0.483391	-91.565896
52223		0.562335	-0.412401	0.419000	-0.581501	-72.016698	-0.480554	-91.570668
52224		0.562378	-0.412397	0.418977	-0.581479	-72.014005	-0.478637	-91.565584
52225		0.562424	-0.412374	0.418920	-0.581492	-72.005904	-0.479192	-91.561792
52226		0.562448	-0.412347	0.418909	-0.581495	-72.002215	-0.477021	-91.561172
52227		0.562482	-0.412341	0.418862	-0.581501	-71.996833	-0.478300	-91.557394
52228		0.562557	-0.412358	0.418767	-0.581485	-71.988893	-0.481238	-91.546235
52229		0.562607	-0.412372	0.418690	-0.581481	-71.982610	-0.484585	-91.538313
52230		0.562686	-0.412365	0.418608	-0.581470	-71.973520	-0.485057	-91.528909
52231		0.562791	-0.412365	0.418489	-0.581454	-71.961505	-0.486939	-91.515331
52232		0.562891	-0.412345	0.418387	-0.581445	-71.949206	-0.486962	-91.504292
52233		0.562977	-0.412322	0.418332	-0.581417	-71.941360	-0.483549	-91.495372
52234		0.563059	-0.412298	0.418307	-0.581373	-71.936499	-0.477613	-91.487111
52235		0.563155	-0.412263	0.418249	-0.581347	-71.927182	-0.473158	-91.477985
52236		0.563257	-0.412215	0.418192	-0.581321	-71.916821	-0.467500	-91.469225
52237		0.563374	-0.412164	0.418112	-0.581303	-71.903532	-0.462823	-91.459072
52238		0.563491	-0.412118	0.418068	-0.581254	-71.894603	-0.454723	-91.448278
52239		0.563588	-0.412063	0.418024	-0.581230	-71.884712	-0.448096	-91.440914
52240		0.563713	-0.412002	0.417957	-0.581201	-71.871902	-0.440958	-91.430575
52241		0.563864	-0.411938	0.417883	-0.581152	-71.858160	-0.431916	-91.417037
52242		0.564027	-0.411859	0.417805	-0.581107	-71.842409	-0.421791	-91.403455
52243		0.564188	-0.411755	0.417736	-0.581074	-71.825160	-0.410089	-91.392453
52244		0.564335	-0.411669	0.417688	-0.581026	-71.811829	-0.398161	-91.381483
52245		0.564498	-0.411573	0.417625	-0.580981	-71.796075	-0.385911	-91.369491
52246		0.564645	-0.411478	0.417598	-0.580925	-71.783906	-0.371706	-91.359407
52247		0.564794	-0.411401	0.417577	-0.580850	-71.774191	-0.357205	-91.347431
52248		0.564955	-0.411329	0.417552	-0.580761	-71.764563	-0.342112	-91.333278
52249		0.565139	-0.411242	0.417525	-0.580664	-71.753274	-0.324711	-91.317653
52250		0.565321	-0.411167	0.417525	-0.580540	-71.745798	-0.305225	-91.301244
52251		0.565511	-0.411091	0.417520	-0.580413	-71.737699	-0.285400	-91.283772
52252		0.565757	-0.411016	0.417484	-0.580253	-71.726656	-0.263421	-91.258965
52253		0.566000	-0.410940	0.417429	-0.580108	-71.713637	-0.243471	-91.234495
52254		0.566281	-0.410853	0.417344	-0.579956	-71.696569	-0.222646	-91.206183
52255		0.566561	-0.410791	0.417286	-0.579769	-71.684534	-0.200120	-91.175780
52256		0.566856	-0.410798	0.417220	-0.579522	-71.678704	-0.179117	-91.136703
52257		0.567168	-0.410827	0.417152	-0.579246	-71.674667	-0.157543	-91.093408
52258		0.567475	-0.410892	0.417096	-0.578939	-71.675538	-0.136342	-91.047442
52259		0.567763	-0.410984	0.417065	-0.578614	-71.681459	-0.115410	-91.001299
52260		0.568073	-0.411128	0.416990	-0.578261	-71.688289	-0.098317	-90.947346
52261		0.568431	-0.411285	0.416883	-0.577875	-71.693111	-0.080459	-90.885928
52262		0.568776	-0.411452	0.416753	-0.577511	-71.696534	-0.066346	-90.825245
52263		0.569132	-0.411597	0.416635	-0.577142	-71.699140	-0.049211	-90.765182
52264		0.569510	-0.411724	0.416476	-0.576792	-71.695799	-0.033442	-90.703846
52265		0.569905	-0.411842	0.416269	-0.576467	-71.686754	-0.020565	-90.640983
52266		0.570303	-0.411960	0.416072	-0.576131	-71.678638	-0.006424	-90.577861
52267		0.570692	-0.412065	0.415880	-0.575810	-71.669784	0.007858	-90.517178
52268		0.571091	-0.412164	0.415658	-0.575503	-71.657444	0.020311	-90.455538
52269		0.571447	-0.412236	0.415488	-0.575221	-71.647478	0.034678	-90.402227
52270		0.571782	-0.412280	0.415369	-0.574942	-71.639896	0.053128	-90.354118
52271		0.572097	-0.412317	0.415255	-0.574685	-71.632211	0.070314	-90.309322
52272		0.572402	-0.412334	0.415155	-0.574442	-71.623747	0.088625	-90.267830
52273		0.572680	-0.412339	0.415071	-0.574221	-71.615856	0.106450	-90.230768
52274		0.572934	-0.412325	0.415016	-0.574018	-71.608983	0.125523	-90.198804
52275		0.573153	-0.412328	0.414999	-0.573810	-71.607550	0.144326	-90.169762
52276		0.573357	-0.412325	0.414972	-0.573628	-71.604520	0.161082	-90.143277
52277		0.573566	-0.412309	0.414926	-0.573463	-71.598276	0.176827	-90.117250
52278		0.573780	-0.412273	0.414893	-0.573299	-71.591359	0.194960	-90.092526
52279		0.573967	-0.412231	0.414871	-0.573157	-71.585008	0.211889	-90.071905
52280		0.574151	-0.412176	0.414837	-0.573038	-71.576086	0.227585	-90.052908
52281		0.574322	-0.412109	0.414805	-0.572938	-71.566191	0.242790	-90.036768
52282		0.574476	-0.412066	0.414780	-0.572831	-71.559416	0.256303	-90.020406
52283		0.574631	-0.412022	0.414723	-0.572750	-71.549255	0.266614	-90.004260
52284		0.574819	-0.411938	0.414638	-0.572683	-71.532312	0.278677	-89.987466
52285		0.574964	-0.411873	0.414575	-0.572629	-71.519585	0.288298	-89.974421
52286		0.575147	-0.411816	0.414459	-0.572571	-71.502289	0.295813	-89.955750
52287		0.575341	-0.411717	0.414342	-0.572532	-71.480693	0.305639	-89.939555
52288		0.575519	-0.411616	0.414229	-0.572508	-71.459286	0.314348	-89.925568
52289		0.575683	-0.411531	0.414107	-0.572491	-71.438668	0.320491	-89.911858
52290		0.575866	-0.411446	0.413947	-0.572484	-71.414160	0.324487	-89.895733
52291		0.576046	-0.411375	0.413789	-0.572469	-71.391267	0.327992	-89.878803
52292		0.576218	-0.411311	0.413624	-0.572461	-71.368358	0.329852	-89.862044
52293		0.576425	-0.411247	0.413416	-0.572449	-71.341190	0.330628	-89.840688
52294		0.576640	-0.411217	0.413216	-0.572398	-71.318231	0.331952	-89.815070
52295		0.576861	-0.411201	0.412987	-0.572352	-71.293768	0.330514	-89.787382
52296		0.577108	-0.411215	0.412736	-0.572274	-71.270094	0.328417	-89.753409
52297		0.577393	-0.411232	0.412441	-0.572187	-71.242364	0.325333	-89.714148
52298		0.577694	-0.411241	0.412137	-0.572096	-71.212863	0.323105	-89.673438
52299		0.577998	-0.411252	0.411835	-0.571998	-71.183825	0.321388	-89.632135
52300		0.578333	-0.411278	0.411517	-0.571870	-71.154748	0.320395	-89.585273
52301		0.578658	-0.411331	0.411168	-0.571754	-71.125280	0.314614	-89.537214
52302		0.578981	-0.411394	0.410837	-0.571620	-71.098576	0.310135	-89.488467
52303		0.579312	-0.411484	0.410491	-0.571467	-71.073231	0.303979	-89.436003
52304		0.579640	-0.411599	0.410138	-0.571307	-71.049501	0.295981	-89.381674
52305		0.579952	-0.411732	0.409791	-0.571143	-71.028282	0.286673	-89.327571
52306		0.580291	-0.411902	0.409406	-0.570952	-71.007098	0.274831	-89.266549
52307		0.580621	-0.412056	0.409001	-0.570795	-70.982329	0.260718	-89.207987
52308		0.580963	-0.412200	0.408588	-0.570639	-70.955843	0.247214	-89.148889
52309		0.581275	-0.412350	0.408213	-0.570482	-70.933684	0.234448	-89.093235
52310		0.581576	-0.412565	0.407819	-0.570300	-70.916312	0.216829	-89.032641
52311		0.581905	-0.412810	0.407370	-0.570109	-70.896441	0.195269	-88.965752
52312		0.582255	-0.413080	0.406893	-0.569897	-70.876365	0.172184	-88.893412
52313		0.582582	-0.413345	0.406454	-0.569684	-70.859612	0.150865	-88.824703
52314		0.582920	-0.413611	0.406023	-0.569452	-70.843848	0.131506	-88.754328
52315		0.583296	-0.413906	0.405569	-0.569176	-70.828856	0.112431	-88.676073
52316		0.583705	-0.414227	0.405086	-0.568867	-70.813569	0.092896	-88.590948
52317		0.584154	-0.414579	0.404597	-0.568498	-70.800950	0.075555	-88.497297
52318		0.584643	-0.414997	0.404094	-0.568048	-70.793601	0.058691	-88.392159
52319		0.585189	-0.415418	0.403536	-0.567574	-70.781377	0.041734	-88.278780
52320		0.585777	-0.415885	0.402950	-0.567041	-70.771208	0.024616	-88.155319
52321		0.586468	-0.416413	0.402264	-0.566426	-70.757418	0.005492	-88.012031
52322		0.587253	-0.417007	0.401467	-0.565742	-70.739769	-0.017870	-87.849679
52323		0.588092	-0.417615	0.400609	-0.565029	-70.717813	-0.042368	-87.678336
52324		0.588989	-0.418267	0.399679	-0.564272	-70.693547	-0.069889	-87.494866
52325		0.590010	-0.418966	0.398617	-0.563436	-70.661749	-0.100011	-87.289540
52326		0.591169	-0.419771	0.397423	-0.562465	-70.628339	-0.133184	-87.055052
52327		0.592388	-0.420647	0.396158	-0.561420	-70.595727	-0.169694	-86.804988
52328		0.593704	-0.421556	0.394829	-0.560282	-70.560992	-0.203853	-86.537834
52329		0.595131	-0.422564	0.393374	-0.559031	-70.524967	-0.242614	-86.245337
52330		0.596679	-0.423690	0.391802	-0.557631	-70.490688	-0.284441	-85.924060
52331		0.598297	-0.424888	0.390146	-0.556146	-70.456725	-0.329656	-85.585103
52332		0.600056	-0.426146	0.388338	-0.554551	-70.415620	-0.377605	-85.219634
52333		0.601972	-0.427415	0.386330	-0.552897	-70.358070	-0.430466	-84.830013
52334		0.603988	-0.428694	0.384242	-0.551161	-70.295331	-0.481491	-84.424196
52335		0.606095	-0.430017	0.382086	-0.549313	-70.232406	-0.531015	-83.999534
52336		0.608341	-0.431372	0.379795	-0.547354	-70.161759	-0.580841	-83.550581
52337		0.610760	-0.432798	0.377271	-0.545275	-70.078880	-0.638486	-83.068031
52338		0.613329	-0.434198	0.374584	-0.543127	-69.980263	-0.696894	-82.564484
52339		0.615940	-0.435572	0.371868	-0.540934	-69.878441	-0.752576	-82.055002
52340		0.618626	-0.436952	0.369121	-0.538632	-69.776792	-0.803170	-81.531533
52341		0.621369	-0.438394	0.366346	-0.536192	-69.681342	-0.851169	-80.990766
52342		0.624147	-0.439920	0.363474	-0.533665	-69.588587	-0.906282	-80.433122
52343		0.626902	-0.441458	0.360652	-0.531074	-69.504208	-0.957327	-79.874384
52344		0.629609	-0.443058	0.357905	-0.528391	-69.435459	-1.004754	-79.313016
52345		0.632245	-0.444750	0.355246	-0.525608	-69.387020	-1.049917	-78.749134
52346		0.634806	-0.446541	0.352685	-0.522719	-69.360181	-1.091996	-78.182542
52347		0.637230	-0.448372	0.350313	-0.519789	-69.356325	-1.126400	-77.628963
52348		0.639489	-0.450250	0.348156	-0.516833	-69.378325	-1.153186	-77.091940
52349		0.641619	-0.452191	0.346190	-0.513810	-69.425475	-1.171055	-76.564428
52350		0.643711	-0.454144	0.344301	-0.510731	-69.482440	-1.182101	-76.038265
52351		0.645748	-0.456180	0.342455	-0.507577	-69.553972	-1.192674	-75.508584
52352		0.647724	-0.458192	0.340740	-0.504390	-69.635719	-1.192114	-74.987506
52353		0.649601	-0.460130	0.339196	-0.501244	-69.724938	-1.179799	-74.486895
52354		0.651419	-0.461995	0.337770	-0.498121	-69.817382	-1.157434	-74.000501
52355		0.653184	-0.463799	0.336456	-0.495013	-69.913312	-1.125215	-73.526378
52356		0.654950	-0.465521	0.335249	-0.491873	-70.009920	-1.077940	-73.058869
52357		0.656699	-0.467172	0.334152	-0.488711	-70.108572	-1.017061	-72.599121
52358		0.658431	-0.468769	0.333209	-0.485485	-70.214463	-0.937968	-72.145932
52359		0.660222	-0.470351	0.332255	-0.482166	-70.318584	-0.850860	-71.682642
52360		0.662195	-0.471741	0.331123	-0.478869	-70.386979	-0.760288	-71.209292
52361		0.664415	-0.472797	0.329800	-0.475655	-70.402368	-0.660518	-70.731814
52362		0.666813	-0.473756	0.328367	-0.472324	-70.398533	-0.550904	-70.233647
52363		0.669364	-0.474731	0.326877	-0.468758	-70.392547	-0.427864	-69.705508
52364		0.672007	-0.475613	0.325466	-0.465050	-70.382957	-0.282835	-69.169444
52365		0.674545	-0.476618	0.324343	-0.461113	-70.410811	-0.113505	-68.632228
52366		0.677027	-0.477707	0.323384	-0.457005	-70.461650	0.071637	-68.090713
52367		0.679511	-0.478774	0.322418	-0.452866	-70.509691	0.259645	-67.547185
52368		0.682025	-0.479829	0.321348	-0.448710	-70.548474	0.442675	-66.995648
52369		0.684564	-0.480779	0.320189	-0.444637	-70.568515	0.620859	-66.448270
52370		0.687139	-0.481613	0.318913	-0.440662	-70.566147	0.791774	-65.904333
52371		0.689745	-0.482429	0.317484	-0.436712	-70.550421	0.951228	-65.352739
52372		0.692367	-0.483225	0.315872	-0.432836	-70.518757	1.093504	-64.796519
52373		0.694993	-0.483964	0.314148	-0.429039	-70.472726	1.225284	-64.241890
52374		0.697576	-0.484657	0.312378	-0.425341	-70.418437	1.348044	-63.696083
52375		0.700075	-0.485316	0.310627	-0.421752	-70.362480	1.464502	-63.165140
52376		0.702509	-0.485965	0.308903	-0.418209	-70.308087	1.578381	-62.642913
52377		0.704893	-0.486639	0.307162	-0.414679	-70.256270	1.686689	-62.122168
52378		0.707301	-0.487340	0.305327	-0.411097	-70.201371	1.789525	-61.589714
52379		0.709721	-0.488073	0.303414	-0.407456	-70.145479	1.887812	-61.046359
52380		0.712127	-0.488807	0.301530	-0.403761	-70.092608	1.990432	-60.500904
52381		0.714487	-0.489546	0.299673	-0.400061	-70.043315	2.093414	-59.958381
52382		0.716846	-0.490319	0.297769	-0.396299	-69.995590	2.193995	-59.407112
52383		0.719177	-0.491158	0.295776	-0.392511	-69.950485	2.284479	-58.847742
52384		0.721475	-0.492017	0.293766	-0.388709	-69.907466	2.371960	-58.287029
52385		0.723690	-0.492962	0.291736	-0.384905	-69.874822	2.451065	-57.726268
52386		0.725918	-0.493922	0.289582	-0.381085	-69.836483	2.520244	-57.155725
52387		0.728175	-0.494881	0.287294	-0.377248	-69.790116	2.579970	-56.574606
52388		0.730419	-0.495878	0.284919	-0.373382	-69.743884	2.631818	-55.985383
52389		0.732639	-0.496911	0.282472	-0.369499	-69.698803	2.675783	-55.390554
52390		0.734872	-0.497866	0.279980	-0.365654	-69.642813	2.717150	-54.797733
52391		0.737056	-0.498897	0.277412	-0.361792	-69.592790	2.747946	-54.199042
52392		0.739203	-0.500038	0.274724	-0.357867	-69.550271	2.766151	-53.586538
52393		0.741341	-0.501173	0.271949	-0.353952	-69.503512	2.775965	-52.970233
52394		0.743458	-0.502224	0.269170	-0.350127	-69.448331	2.782773	-52.364414
52395		0.745474	-0.503309	0.266469	-0.346328	-69.404707	2.789805	-51.768844
52396		0.747407	-0.504419	0.263833	-0.342545	-69.370283	2.797655	-51.181351
52397		0.749258	-0.505549	0.261255	-0.338789	-69.344113	2.805496	-50.602460
52398		0.751031	-0.506707	0.258756	-0.335031	-69.328226	2.816820	-50.030824
52399		0.752731	-0.507869	0.256327	-0.331303	-69.319173	2.830066	-49.468837
52400		0.754388	-0.509022	0.253924	-0.327595	-69.312291	2.843447	-48.912012
52401		0.755994	-0.510195	0.251539	-0.323887	-69.310897	2.856389	-48.357843
52402		0.757571	-0.511383	0.249140	-0.320162	-69.312185	2.867777	-47.802155
52403		0.759124	-0.512548	0.246741	-0.316456	-69.312451	2.878358	-47.249649
52404		0.760658	-0.513690	0.244337	-0.312763	-69.311183	2.888246	-46.699148
52405		0.762160	-0.514847	0.241932	-0.309052	-69.313491	2.897736	-46.148089
52406		0.763651	-0.515907	0.239599	-0.305402	-69.309390	2.913160	-45.609244
52407		0.765132	-0.516878	0.237348	-0.301788	-69.300228	2.936549	-45.080903
52408		0.766605	-0.517827	0.235107	-0.298156	-69.290303	2.962473	-44.552569
52409		0.768082	-0.518731	0.232884	-0.294506	-69.277041	2.992716	-44.024398
52410		0.769569	-0.519559	0.230709	-0.290852	-69.258094	3.030288	-43.500311
52411		0.771026	-0.520373	0.228590	-0.287189	-69.241691	3.072931	-42.980076
52412		0.772532	-0.521127	0.226383	-0.283501	-69.213989	3.112449	-42.451822
52413		0.774051	-0.521897	0.224097	-0.279732	-69.185405	3.149555	-41.910784
52414		0.775600	-0.522663	0.221697	-0.275895	-69.151555	3.181314	-41.355787
52415		0.777139	-0.523436	0.219226	-0.272048	-69.116523	3.206737	-40.795592
52416		0.778681	-0.524220	0.216646	-0.268168	-69.079007	3.223924	-40.225440
52417		0.780183	-0.525155	0.213830	-0.264204	-69.050661	3.219268	-39.631611
52418		0.781777	-0.525899	0.210837	-0.260390	-68.991009	3.197410	-39.040685
52419		0.783399	-0.526461	0.207809	-0.256789	-68.908510	3.165227	-38.469084
52420		0.785003	-0.526913	0.204748	-0.253400	-68.812755	3.119305	-37.916965
52421		0.786626	-0.527173	0.201780	-0.250187	-68.698837	3.076347	-37.389348
52422		0.788095	-0.527489	0.199025	-0.247083	-68.604611	3.040097	-36.888692
52423		0.789311	-0.528072	0.196489	-0.243966	-68.557467	3.010548	-36.403642
