header=PacketCounter SampleTimeFine Quat_q0 Quat_q1 Quat_q2 Quat_q3 Roll Pitch Yaw
version=1
nRows=5331
nColumns=9
inDegrees=no
endheader
50856		-0.734215	-0.637667	-0.035932	0.230256	78.677140	20.268336	-18.154681
50857		-0.745482	-0.632106	-0.025820	0.209838	77.910012	17.684572	-17.104674
50858		-0.755679	-0.626754	-0.014982	0.189487	77.200492	15.079909	-16.090015
50859		-0.764746	-0.621705	-0.003560	0.169215	76.560449	12.465298	-15.101366
50860		-0.772862	-0.616784	0.008357	0.148972	75.960971	9.837209	-14.132711
50861		-0.780236	-0.611726	0.020672	0.128823	75.361438	7.201006	-13.186106
50862		-0.787275	-0.606008	0.033280	0.108837	74.684716	4.560487	-12.261724
50863		-0.794236	-0.599273	0.046089	0.089095	73.879837	1.923981	-11.354260
50864		-0.801321	-0.591211	0.059146	0.069689	72.904501	-0.709804	-10.465014
50865		-0.808285	-0.582101	0.072462	0.050830	71.799676	-3.322908	-9.602486
50866		-0.814741	-0.572474	0.086059	0.032618	70.640495	-5.905441	-8.771404
50867		-0.820206	-0.563087	0.099843	0.015066	69.529865	-8.442500	-7.970112
50868		-0.824498	-0.554318	0.113716	-0.001992	68.515302	-10.936724	-7.183967
50869		-0.827679	-0.546187	0.127595	-0.018613	67.594654	-13.388148	-6.407754
50870		-0.830002	-0.538386	0.141516	-0.034807	66.723333	-15.806885	-5.642281
50871		-0.831760	-0.530551	0.155408	-0.050398	65.848397	-18.179901	-4.894774
50872		-0.833081	-0.522543	0.169275	-0.065352	64.949040	-20.508016	-4.164616
50873		-0.834084	-0.514273	0.183032	-0.079540	64.009809	-22.776546	-3.455376
50874		-0.834940	-0.505544	0.196647	-0.092899	63.000739	-24.980230	-2.763106
50875		-0.835726	-0.496299	0.210100	-0.105388	61.911242	-27.115109	-2.085659
50876		-0.836333	-0.486739	0.223416	-0.117123	60.767083	-29.190631	-1.416652
50877		-0.836548	-0.477255	0.236617	-0.128168	59.623620	-31.212981	-0.764846
50878		-0.836182	-0.468178	0.249717	-0.138745	58.525408	-33.197950	-0.122684
50879		-0.835059	-0.459940	0.262544	-0.149004	57.527905	-35.137816	0.514597
50880		-0.833045	-0.452828	0.275053	-0.159151	56.669211	-37.041924	1.152685
50881		-0.830056	-0.447087	0.287149	-0.169309	55.983430	-38.909458	1.790347
50882		-0.826082	-0.442790	0.298753	-0.179643	55.478152	-40.743791	2.438122
50883		-0.821129	-0.440014	0.309736	-0.190257	55.162684	-42.539512	3.102288
50884		-0.815255	-0.438647	0.320072	-0.201253	55.020133	-44.301847	3.793345
50885		-0.808576	-0.438516	0.329700	-0.212618	55.025480	-46.025471	4.516682
50886		-0.801217	-0.439390	0.338636	-0.224307	55.147514	-47.710793	5.274087
50887		-0.793355	-0.440972	0.346881	-0.236232	55.341550	-49.353446	6.071944
50888		-0.785170	-0.442903	0.354572	-0.248241	55.559183	-50.958719	6.906332
50889		-0.776876	-0.444900	0.361746	-0.260130	55.759024	-52.516320	7.772224
50890		-0.768680	-0.446613	0.368533	-0.271754	55.884947	-54.028198	8.675522
50891		-0.760788	-0.447855	0.374967	-0.282892	55.907178	-55.480117	9.607417
50892		-0.753376	-0.448390	0.381188	-0.293371	55.788171	-56.871275	10.563924
50893		-0.746589	-0.448166	0.387203	-0.303028	55.517901	-58.187420	11.535057
50894		-0.740548	-0.447092	0.393072	-0.311758	55.078286	-59.422866	12.518723
50895		-0.735336	-0.445232	0.398792	-0.319396	54.488852	-60.563814	13.486761
50896		-0.730940	-0.442724	0.404337	-0.325936	53.776877	-61.605095	14.424421
50897		-0.727286	-0.439852	0.409631	-0.331342	53.009729	-62.538491	15.289924
50898		-0.724290	-0.436825	0.414624	-0.335670	52.238122	-63.364262	16.057884
50899		-0.721906	-0.433871	0.419213	-0.338923	51.522205	-64.074313	16.691484
50900		-0.720037	-0.431167	0.423329	-0.341225	50.904378	-64.672170	17.176960
50901		-0.718649	-0.428917	0.426801	-0.342658	50.429936	-65.146323	17.498521
50902		-0.717582	-0.427368	0.429534	-0.343414	50.147467	-65.502587	17.649223
50903		-0.716711	-0.426735	0.431406	-0.343673	50.094327	-65.741551	17.630362
50904		-0.715907	-0.427127	0.432449	-0.343552	50.293732	-65.876520	17.438535
50905		-0.715049	-0.428636	0.432678	-0.343172	50.758784	-65.917998	17.080238
50906		-0.714069	-0.431203	0.432172	-0.342631	51.466113	-65.879626	16.580902
50907		-0.712965	-0.434742	0.430977	-0.341963	52.387597	-65.765753	15.963238
50908		-0.711732	-0.439057	0.429215	-0.341234	53.466756	-65.590432	15.269468
50909		-0.710405	-0.443922	0.427050	-0.340420	54.654372	-65.367170	14.522736
50910		-0.709045	-0.449149	0.424537	-0.339542	55.897637	-65.099716	13.759027
50911		-0.707615	-0.454647	0.421769	-0.338656	57.171425	-64.801494	12.998575
50912		-0.706144	-0.460240	0.418852	-0.337793	58.434794	-64.484651	12.266312
50913		-0.704660	-0.465825	0.415873	-0.336915	59.672780	-64.155995	11.562256
50914		-0.703189	-0.471258	0.412975	-0.335995	60.865269	-63.828765	10.886615
50915		-0.701782	-0.476437	0.410261	-0.334956	62.004180	-63.508290	10.227933
50916		-0.700508	-0.481215	0.407814	-0.333780	63.063800	-63.200888	9.593350
50917		-0.699430	-0.485571	0.405647	-0.332369	64.048711	-62.900987	8.966505
50918		-0.698585	-0.489413	0.403783	-0.330777	64.935324	-62.613757	8.365033
50919		-0.697964	-0.492741	0.402290	-0.328960	65.736421	-62.344263	7.770425
50920		-0.697577	-0.495511	0.401167	-0.326988	66.438080	-62.096995	7.197605
50921		-0.697416	-0.497736	0.400415	-0.324866	67.045883	-61.873167	6.642375
50922		-0.697481	-0.499407	0.400001	-0.322664	67.551066	-61.674611	6.119111
50923		-0.697755	-0.500601	0.399827	-0.320430	67.961204	-61.495260	5.634382
50924		-0.698190	-0.501391	0.399831	-0.318233	68.284914	-61.334484	5.194473
50925		-0.698779	-0.501830	0.399882	-0.316178	68.514885	-61.186561	4.824168
50926		-0.699517	-0.501965	0.399912	-0.314289	68.655003	-61.046673	4.527945
50927		-0.700339	-0.501970	0.399808	-0.312578	68.734898	-60.904659	4.297565
50928		-0.701183	-0.501954	0.399520	-0.311077	68.774866	-60.758162	4.127853
50929		-0.702002	-0.502048	0.399001	-0.309739	68.804527	-60.599311	3.999378
50930		-0.702759	-0.502318	0.398220	-0.308590	68.834714	-60.426774	3.911044
50931		-0.703417	-0.502836	0.397207	-0.307550	68.891873	-60.238450	3.836342
50932		-0.704015	-0.503578	0.395944	-0.306594	68.968659	-60.030293	3.778190
50933		-0.704505	-0.504609	0.394485	-0.305652	69.091067	-59.803278	3.710048
50934		-0.704938	-0.505839	0.392866	-0.304704	69.241916	-59.559513	3.637307
50935		-0.705287	-0.507258	0.391178	-0.303709	69.431365	-59.305735	3.543288
50936		-0.705596	-0.508778	0.389434	-0.302689	69.638368	-59.044696	3.441894
50937		-0.705884	-0.510343	0.387681	-0.301632	69.855043	-58.780418	3.332942
50938		-0.706202	-0.511845	0.385974	-0.300529	70.062839	-58.517468	3.221841
50939		-0.706571	-0.513231	0.384366	-0.299357	70.256137	-58.259755	3.105280
50940		-0.706994	-0.514455	0.382896	-0.298138	70.428210	-58.012887	2.986268
50941		-0.707440	-0.515512	0.381614	-0.296897	70.582042	-57.784055	2.862133
50942		-0.707935	-0.516356	0.380535	-0.295633	70.709158	-57.574680	2.736115
50943		-0.708415	-0.517018	0.379712	-0.294381	70.821835	-57.393129	2.600770
50944		-0.708884	-0.517466	0.379177	-0.293151	70.915752	-57.243418	2.457270
50945		-0.709349	-0.517714	0.378927	-0.291909	70.995492	-57.122551	2.299335
50946		-0.709838	-0.517673	0.379018	-0.290671	71.046507	-57.037668	2.132279
50947		-0.710369	-0.517344	0.379479	-0.289355	71.076124	-56.985449	1.941084
50948		-0.710962	-0.516707	0.380258	-0.288013	71.072187	-56.964578	1.741652
50949		-0.711649	-0.515735	0.381358	-0.286599	71.031461	-56.972037	1.530356
50950		-0.712431	-0.514435	0.382697	-0.285203	70.943186	-57.006084	1.328980
50951		-0.713282	-0.512910	0.384193	-0.283810	70.822332	-57.057195	1.133710
50952		-0.714163	-0.511200	0.385753	-0.282561	70.661974	-57.126501	0.970669
50953		-0.714993	-0.509435	0.387346	-0.281467	70.487570	-57.211809	0.829474
50954		-0.715729	-0.507648	0.388958	-0.280601	70.302124	-57.316966	0.717357
50955		-0.716308	-0.505942	0.390568	-0.279966	70.125867	-57.439984	0.625432
50956		-0.716709	-0.504361	0.392130	-0.279610	69.961275	-57.579442	0.560884
50957		-0.716907	-0.502928	0.393687	-0.279498	69.819840	-57.737138	0.510440
50958		-0.716917	-0.501632	0.395197	-0.279670	69.692287	-57.911516	0.486733
50959		-0.716745	-0.500492	0.396670	-0.280067	69.586306	-58.099305	0.478394
50960		-0.716423	-0.499451	0.398103	-0.280713	69.487384	-58.301606	0.496367
50961		-0.715981	-0.498511	0.399510	-0.281514	69.401416	-58.512942	0.526234
50962		-0.715454	-0.497601	0.400923	-0.282453	69.316666	-58.735605	0.570162
50963		-0.714894	-0.496688	0.402342	-0.283459	69.228387	-58.964115	0.623487
50964		-0.714353	-0.495702	0.403801	-0.284472	69.127309	-59.197701	0.682203
50965		-0.713846	-0.494659	0.405279	-0.285455	69.016060	-59.431287	0.742754
50966		-0.713444	-0.493484	0.406787	-0.286349	68.880596	-59.661593	0.805720
50967		-0.713111	-0.492288	0.408221	-0.287196	68.732418	-59.880332	0.877060
50968		-0.712879	-0.491062	0.409560	-0.287961	68.568481	-60.082768	0.956306
50969		-0.712665	-0.489969	0.410688	-0.288746	68.407550	-60.263838	1.052330
50970		-0.712479	-0.488987	0.411608	-0.289558	68.244534	-60.424311	1.168638
50971		-0.712266	-0.488243	0.412213	-0.290476	68.092350	-60.558303	1.314088
50972		-0.712021	-0.487717	0.412571	-0.291450	67.957761	-60.669543	1.474147
50973		-0.711703	-0.487460	0.412662	-0.292525	67.848497	-60.759197	1.650481
50974		-0.711407	-0.487365	0.412530	-0.293591	67.750062	-60.823745	1.836170
50975		-0.711018	-0.487566	0.412142	-0.294741	67.687015	-60.866910	2.029238
50976		-0.710615	-0.487959	0.411539	-0.295901	67.642937	-60.887645	2.228148
50977		-0.710146	-0.488621	0.410697	-0.297105	67.632403	-60.885849	2.429534
50978		-0.709674	-0.489393	0.409714	-0.298314	67.631641	-60.869472	2.636023
50979		-0.709118	-0.490335	0.408614	-0.299596	67.654409	-60.846262	2.845338
50980		-0.708435	-0.491420	0.407382	-0.301109	67.684007	-60.826712	3.085870
50981		-0.707274	-0.492910	0.405985	-0.303281	67.757841	-60.840386	3.385987
50982		-0.705304	-0.494928	0.404482	-0.306573	67.889353	-60.930275	3.785195
50983		-0.702027	-0.497919	0.402841	-0.311375	68.165793	-61.126709	4.278259
50984		-0.697207	-0.502041	0.401062	-0.317816	68.626161	-61.445040	4.856461
50985		-0.690831	-0.507304	0.399124	-0.325724	69.291022	-61.876742	5.488719
50986		-0.683320	-0.513123	0.397158	-0.334729	70.060865	-62.410222	6.181742
50987		-0.675231	-0.518928	0.395186	-0.344390	70.820285	-63.013143	6.953792
50988		-0.667279	-0.523995	0.393275	-0.354264	71.404575	-63.651794	7.852602
50989		-0.659861	-0.528018	0.391450	-0.364070	71.733150	-64.300010	8.899260
50990		-0.653330	-0.530567	0.390140	-0.373429	71.743121	-64.963528	10.064020
50991		-0.647867	-0.531664	0.389501	-0.381956	71.460320	-65.620953	11.280999
50992		-0.643442	-0.531442	0.389665	-0.389505	70.932996	-66.269896	12.496845
50993		-0.639524	-0.530576	0.390368	-0.396372	70.297051	-66.912983	13.680238
50994		-0.635725	-0.529533	0.391483	-0.402728	69.663189	-67.558046	14.788557
50995		-0.631686	-0.528830	0.392683	-0.408793	69.136156	-68.197371	15.800617
50996		-0.627450	-0.528445	0.393893	-0.414609	68.702429	-68.826779	16.733108
50997		-0.623005	-0.528549	0.394926	-0.420160	68.402362	-69.428069	17.565863
50998		-0.618746	-0.528718	0.395983	-0.425217	68.152005	-69.995233	18.310441
50999		-0.614765	-0.528823	0.397233	-0.429669	67.948574	-70.535546	18.940547
51000		-0.611318	-0.528578	0.398776	-0.433443	67.717278	-71.045189	19.489963
51001		-0.608237	-0.528262	0.400442	-0.436615	67.528364	-71.517754	19.928763
51002		-0.605559	-0.527802	0.402302	-0.439177	67.372358	-71.958408	20.255726
51003		-0.603148	-0.527408	0.404206	-0.441215	67.301966	-72.362618	20.452219
51004		-0.600976	-0.527021	0.406145	-0.442858	67.283985	-72.738004	20.557638
51005		-0.598873	-0.526879	0.407981	-0.444186	67.385365	-73.081972	20.541368
51006		-0.596937	-0.526881	0.409729	-0.445179	67.575522	-73.391034	20.420618
51007		-0.594863	-0.527401	0.411145	-0.446034	67.945247	-73.663599	20.169204
51008		-0.592805	-0.528189	0.412332	-0.446745	68.414865	-73.903619	19.837357
51009		-0.590819	-0.529216	0.413383	-0.447188	69.006975	-74.109685	19.384801
51010		-0.589237	-0.530077	0.414538	-0.447188	69.616120	-74.282629	18.850546
51011		-0.588071	-0.530764	0.415881	-0.446660	70.265462	-74.424471	18.200438
51012		-0.587473	-0.531065	0.417601	-0.445483	70.914403	-74.540480	17.436139
51013		-0.587438	-0.531055	0.419653	-0.443608	71.590283	-74.622857	16.534724
51014		-0.588120	-0.530553	0.422093	-0.440983	72.228593	-74.668553	15.535232
51015		-0.589552	-0.529552	0.424876	-0.437588	72.814524	-74.671153	14.451386
51016		-0.592008	-0.527705	0.428224	-0.433218	73.265754	-74.632777	13.304763
51017		-0.595605	-0.524825	0.432301	-0.427703	73.561527	-74.557707	12.079022
51018		-0.600713	-0.520375	0.437378	-0.420778	73.569832	-74.451121	10.822329
51019		-0.607284	-0.514290	0.443427	-0.412413	73.282466	-74.316981	9.540585
51020		-0.615316	-0.506379	0.450286	-0.402752	72.595466	-74.159807	8.343654
51021		-0.624316	-0.497195	0.457383	-0.392209	71.594148	-73.968717	7.261840
51022		-0.634007	-0.487071	0.464194	-0.381208	70.271076	-73.730910	6.391371
51023		-0.643796	-0.476795	0.470183	-0.370298	68.775773	-73.439006	5.724387
51024		-0.653451	-0.466709	0.475087	-0.359829	67.150167	-73.090051	5.287730
51025		-0.662533	-0.457447	0.478735	-0.350149	65.559903	-72.689341	5.008830
51026		-0.670880	-0.449204	0.481122	-0.341552	64.033011	-72.251310	4.899862
51027		-0.678145	-0.442553	0.482160	-0.334347	62.708764	-71.783398	4.901063
51028		-0.684329	-0.437629	0.481907	-0.328543	61.623660	-71.284862	4.983093
51029		-0.689426	-0.434490	0.480451	-0.324155	60.795870	-70.761600	5.129573
51030		-0.693619	-0.432875	0.478002	-0.320977	60.186175	-70.218224	5.330446
51031		-0.696843	-0.432898	0.474618	-0.318979	59.834438	-69.658690	5.552561
51032		-0.699019	-0.434712	0.470207	-0.318283	59.750722	-69.081574	5.813301
51033		-0.699684	-0.439009	0.464486	-0.319322	60.050478	-68.490513	6.109368
51034		-0.699239	-0.445140	0.457600	-0.321741	60.593095	-67.877843	6.488640
51035		-0.698050	-0.452524	0.450058	-0.324648	61.372427	-67.242126	6.817011
51036		-0.696629	-0.460126	0.442265	-0.327711	62.174157	-66.601577	7.173386
51037		-0.694945	-0.467791	0.434367	-0.330981	62.972779	-65.976964	7.571405
51038		-0.693131	-0.475300	0.426559	-0.334224	63.755346	-65.372618	7.977731
51039		-0.691055	-0.482839	0.418841	-0.337464	64.571911	-64.791761	8.362887
51040		-0.688934	-0.490117	0.411241	-0.340641	65.349501	-64.229646	8.764407
51041		-0.686839	-0.497108	0.403869	-0.343550	66.110218	-63.682090	9.135945
51042		-0.685060	-0.503314	0.397097	-0.345951	66.779794	-63.165529	9.469079
51043		-0.683602	-0.508735	0.391016	-0.347826	67.366646	-62.685554	9.748920
51044		-0.682641	-0.513174	0.385721	-0.349104	67.830969	-62.241633	9.983228
51045		-0.682083	-0.516740	0.381184	-0.349916	68.187880	-61.839600	10.178297
51046		-0.682048	-0.519178	0.377535	-0.350331	68.380187	-61.493429	10.365383
51047		-0.682315	-0.520756	0.374695	-0.350518	68.458570	-61.209834	10.537730
51048		-0.682894	-0.521414	0.372740	-0.350497	68.413170	-60.996727	10.697515
51049		-0.683531	-0.521522	0.371547	-0.350362	68.319256	-60.852718	10.819232
51050		-0.684219	-0.521073	0.371057	-0.350205	68.162131	-60.777866	10.926730
51051		-0.684802	-0.520337	0.371128	-0.350085	67.990915	-60.764932	11.007794
51052		-0.685424	-0.519127	0.371811	-0.349940	67.766623	-60.811804	11.075072
51053		-0.686013	-0.517633	0.372955	-0.349780	67.520330	-60.905610	11.122242
51054		-0.686689	-0.515781	0.374510	-0.349529	67.231750	-61.033693	11.156427
51055		-0.687347	-0.513797	0.376303	-0.349232	66.937399	-61.183796	11.173305
51056		-0.688080	-0.511535	0.378353	-0.348894	66.602032	-61.356172	11.193136
51057		-0.688788	-0.509187	0.380578	-0.348510	66.265811	-61.544737	11.197692
51058		-0.689578	-0.506586	0.383026	-0.348056	65.892889	-61.750339	11.202180
51059		-0.690318	-0.503931	0.385618	-0.347582	65.522203	-61.971387	11.195063
51060		-0.691079	-0.501080	0.388408	-0.347085	65.123496	-62.211621	11.190751
51061		-0.691782	-0.498235	0.391247	-0.346591	64.730992	-62.459366	11.181698
51062		-0.692476	-0.495288	0.394202	-0.346079	64.325152	-62.718970	11.172991
51063		-0.693112	-0.492404	0.397147	-0.345555	63.934664	-62.979068	11.156160
51064		-0.693781	-0.489461	0.400092	-0.344996	63.530400	-63.236957	11.145763
51065		-0.694385	-0.486669	0.402948	-0.344405	63.157966	-63.485987	11.119532
51066		-0.695027	-0.483871	0.405765	-0.343747	62.783820	-63.726679	11.090728
51067		-0.695606	-0.481290	0.408437	-0.343032	62.454886	-63.950999	11.037993
51068		-0.696228	-0.478753	0.411043	-0.342207	62.139234	-64.161266	10.969198
51069		-0.696789	-0.476467	0.413488	-0.341308	61.878708	-64.352270	10.868317
51070		-0.697341	-0.474288	0.415811	-0.340392	61.634967	-64.530255	10.763420
51071		-0.697769	-0.472435	0.417915	-0.339516	61.451476	-64.690869	10.639787
51072		-0.698101	-0.470819	0.419791	-0.338762	61.296325	-64.837332	10.528049
51073		-0.698250	-0.469643	0.421342	-0.338162	61.210223	-64.963036	10.412000
51074		-0.698262	-0.468765	0.422615	-0.337766	61.155968	-65.074683	10.318089
51075		-0.698057	-0.468337	0.423595	-0.337557	61.174358	-65.171320	10.219271
51076		-0.697740	-0.468111	0.424398	-0.337516	61.213312	-65.261763	10.138835
51077		-0.697276	-0.468173	0.425056	-0.337561	61.306852	-65.345121	10.043053
51078		-0.696819	-0.468258	0.425661	-0.337625	61.399170	-65.423727	9.953651
51079		-0.696368	-0.468430	0.426186	-0.337655	61.509533	-65.491477	9.853362
51080		-0.696028	-0.468443	0.426767	-0.337604	61.590458	-65.557848	9.758187
51081		-0.695791	-0.468391	0.427362	-0.337412	61.667432	-65.614856	9.647411
51082		-0.695704	-0.468086	0.428050	-0.337142	61.692764	-65.673767	9.554389
51083		-0.695645	-0.467744	0.428770	-0.336824	61.716474	-65.732624	9.454267
51084		-0.695661	-0.467242	0.429559	-0.336482	61.706495	-65.795992	9.368537
51085		-0.695643	-0.466766	0.430324	-0.336203	61.695871	-65.861480	9.292270
51086		-0.695673	-0.466197	0.431069	-0.335974	61.652354	-65.927068	9.244761
51087		-0.695634	-0.465743	0.431727	-0.335841	61.621510	-65.990625	9.206212
51088		-0.695587	-0.465269	0.432322	-0.335828	61.566573	-66.055137	9.201910
51089		-0.695459	-0.464959	0.432808	-0.335898	61.536126	-66.114729	9.199059
51090		-0.695367	-0.464632	0.433243	-0.335980	61.493104	-66.168803	9.209000
51091		-0.695286	-0.464369	0.433632	-0.336009	61.467222	-66.214413	9.204402
51092		-0.695282	-0.464054	0.433994	-0.335984	61.427391	-66.252143	9.204092
51093		-0.695282	-0.463836	0.434288	-0.335907	61.411053	-66.279219	9.186418
51094		-0.695320	-0.463614	0.434555	-0.335789	61.393577	-66.299950	9.166374
51095		-0.695327	-0.463504	0.434737	-0.335691	61.395145	-66.313445	9.141721
51096		-0.695328	-0.463394	0.434887	-0.335645	61.387922	-66.326765	9.131172
51097		-0.695226	-0.463465	0.434951	-0.335677	61.413723	-66.337797	9.114072
51098		-0.695070	-0.463575	0.434989	-0.335797	61.439557	-66.352506	9.109453
51099		-0.694819	-0.463847	0.434958	-0.335981	61.496326	-66.365652	9.097010
51100		-0.694560	-0.464086	0.434905	-0.336257	61.532613	-66.382286	9.110380
51101		-0.694240	-0.464425	0.434817	-0.336563	61.590425	-66.398349	9.115688
51102		-0.693926	-0.464675	0.434772	-0.336923	61.623580	-66.422274	9.140875
51103		-0.693584	-0.464977	0.434712	-0.337288	61.669289	-66.445536	9.159496
51104		-0.693306	-0.465139	0.434720	-0.337626	61.686542	-66.473234	9.188981
51105		-0.693050	-0.465281	0.434772	-0.337889	61.710297	-66.500524	9.202303
51106		-0.692917	-0.465184	0.434937	-0.338082	61.687307	-66.533239	9.230198
51107		-0.692844	-0.465040	0.435137	-0.338172	61.664656	-66.562027	9.243124
51108		-0.692864	-0.464719	0.435396	-0.338240	61.600815	-66.594017	9.276464
51109		-0.692851	-0.464471	0.435640	-0.338292	61.557433	-66.624113	9.295594
51110		-0.692883	-0.464144	0.435869	-0.338381	61.485912	-66.653886	9.338534
51111		-0.692868	-0.463935	0.436045	-0.338472	61.440775	-66.679023	9.368009
51112		-0.692877	-0.463678	0.436200	-0.338606	61.375039	-66.703950	9.417555
51113		-0.692823	-0.463575	0.436265	-0.338774	61.338488	-66.722657	9.457969
51114		-0.692750	-0.463507	0.436276	-0.339002	61.299402	-66.739665	9.510812
51115		-0.692622	-0.463607	0.436209	-0.339214	61.299552	-66.748191	9.541068
51116		-0.692545	-0.463681	0.436082	-0.339432	61.283920	-66.749620	9.586137
51117		-0.692422	-0.463881	0.435929	-0.339606	61.305332	-66.746474	9.603248
51118		-0.692287	-0.464063	0.435757	-0.339854	61.311874	-66.746179	9.640380
51119		-0.692041	-0.464438	0.435482	-0.340192	61.352526	-66.742610	9.672791
51120		-0.691734	-0.464840	0.435188	-0.340644	61.387826	-66.745359	9.723925
51121		-0.691356	-0.465334	0.434863	-0.341153	61.440444	-66.749946	9.772549
51122		-0.690996	-0.465718	0.434610	-0.341680	61.469268	-66.762990	9.834466
51123		-0.690627	-0.466121	0.434373	-0.342177	61.508673	-66.776193	9.884854
51124		-0.690361	-0.466357	0.434225	-0.342582	61.519866	-66.791064	9.936663
51125		-0.690139	-0.466578	0.434132	-0.342845	61.547385	-66.802208	9.956860
51126		-0.690054	-0.466600	0.434142	-0.342973	61.543544	-66.813039	9.974427
51127		-0.689985	-0.466637	0.434206	-0.342980	61.562168	-66.821989	9.959026
51128		-0.689963	-0.466585	0.434321	-0.342949	61.565246	-66.832876	9.945829
51129		-0.689884	-0.466643	0.434403	-0.342928	61.595031	-66.842066	9.918385
51130		-0.689767	-0.466676	0.434485	-0.343012	61.608154	-66.858663	9.914787
51131		-0.689537	-0.466861	0.434500	-0.343204	61.646220	-66.877113	9.912435
51132		-0.689269	-0.467035	0.434479	-0.343533	61.663640	-66.901101	9.942729
51133		-0.688942	-0.467277	0.434410	-0.343945	61.686863	-66.926427	9.982592
51134		-0.688659	-0.467451	0.434340	-0.344366	61.689242	-66.951253	10.037134
51135		-0.688381	-0.467634	0.434260	-0.344772	61.694491	-66.973962	10.088728
51136		-0.688181	-0.467713	0.434212	-0.345125	61.678060	-66.995132	10.146155
51137		-0.687998	-0.467850	0.434150	-0.345381	61.686214	-67.008479	10.176159
51138		-0.687893	-0.467882	0.434153	-0.345544	61.680740	-67.021227	10.199655
51139		-0.687813	-0.467969	0.434136	-0.345607	61.697898	-67.025038	10.197214
51140		-0.687803	-0.467940	0.434166	-0.345628	61.691624	-67.029825	10.201976
51141		-0.687789	-0.468007	0.434137	-0.345603	61.709523	-67.025416	10.189031
51142		-0.687774	-0.468013	0.434132	-0.345630	61.708149	-67.026835	10.193553
51143		-0.687677	-0.468146	0.434084	-0.345702	61.734239	-67.028353	10.188226
51144		-0.687625	-0.468186	0.434035	-0.345814	61.728803	-67.031214	10.208760
51145		-0.687546	-0.468283	0.433941	-0.345959	61.730921	-67.031724	10.231186
51146		-0.687494	-0.468290	0.433870	-0.346141	61.706463	-67.036626	10.274297
51147		-0.687444	-0.468344	0.433778	-0.346283	61.696624	-67.036666	10.304211
51148		-0.687475	-0.468262	0.433734	-0.346386	61.657209	-67.037618	10.345631
51149		-0.687525	-0.468194	0.433671	-0.346458	61.622022	-67.034297	10.381650
51150		-0.687652	-0.468015	0.433641	-0.346485	61.563055	-67.029927	10.425767
51151		-0.687745	-0.467943	0.433580	-0.346474	61.534684	-67.020585	10.447010
51152		-0.687913	-0.467741	0.433545	-0.346457	61.472388	-67.012068	10.488296
51153		-0.688076	-0.467609	0.433464	-0.346413	61.426958	-66.997003	10.517891
51154		-0.688252	-0.467418	0.433380	-0.346426	61.358701	-66.984761	10.569819
51155		-0.688341	-0.467405	0.433203	-0.346489	61.325246	-66.967606	10.610820
51156		-0.688407	-0.467410	0.432973	-0.346638	61.282479	-66.950532	10.671877
51157		-0.688411	-0.467537	0.432691	-0.346811	61.266233	-66.930850	10.721691
51158		-0.688461	-0.467578	0.432405	-0.347012	61.221557	-66.911387	10.794047
51159		-0.688514	-0.467657	0.432106	-0.347175	61.189915	-66.887969	10.853887
51160		-0.688628	-0.467602	0.431856	-0.347332	61.126644	-66.868186	10.930583
51161		-0.688754	-0.467570	0.431607	-0.347436	61.075188	-66.844835	10.992776
51162		-0.688950	-0.467405	0.431408	-0.347517	60.993682	-66.823870	11.068822
51163		-0.689149	-0.467281	0.431220	-0.347522	60.932887	-66.799317	11.121162
51164		-0.689386	-0.467077	0.431063	-0.347520	60.853871	-66.776710	11.182437
51165		-0.689579	-0.466999	0.430869	-0.347484	60.809699	-66.749178	11.219102
51166		-0.689743	-0.466903	0.430709	-0.347485	60.761558	-66.728178	11.260622
51167		-0.689872	-0.466920	0.430522	-0.347437	60.747039	-66.702207	11.275948
51168		-0.690022	-0.466857	0.430378	-0.347404	60.713598	-66.681134	11.302661
51169		-0.690103	-0.466891	0.430233	-0.347376	60.707736	-66.661907	11.312025
51170		-0.690179	-0.466855	0.430146	-0.347382	60.685707	-66.651198	11.332643
51171		-0.690212	-0.466885	0.430065	-0.347377	60.684643	-66.641396	11.337709
51172		-0.690315	-0.466728	0.430092	-0.347350	60.645202	-66.640183	11.358458
51173		-0.690439	-0.466550	0.430175	-0.347238	60.614978	-66.639363	11.359228
51174		-0.690608	-0.466217	0.430348	-0.347135	60.550772	-66.647638	11.377643
51175		-0.690752	-0.465962	0.430516	-0.346983	60.512877	-66.652941	11.373076
51176		-0.690949	-0.465599	0.430742	-0.346796	60.454297	-66.661175	11.374240
51177		-0.691118	-0.465324	0.430973	-0.346543	60.428156	-66.666589	11.345574
51178		-0.691331	-0.464963	0.431253	-0.346255	60.386677	-66.674143	11.319665
51179		-0.691533	-0.464684	0.431517	-0.345895	60.373972	-66.676034	11.266951
51180		-0.691763	-0.464345	0.431824	-0.345506	60.352078	-66.680093	11.213990
51181		-0.691984	-0.464069	0.432124	-0.345061	60.352743	-66.680187	11.139760
51182		-0.692258	-0.463682	0.432461	-0.344608	60.326805	-66.682713	11.079726
51183		-0.692514	-0.463359	0.432787	-0.344119	60.321614	-66.682264	11.002207
51184		-0.692793	-0.462947	0.433114	-0.343701	60.284277	-66.685629	10.954669
51185		-0.693002	-0.462641	0.433380	-0.343356	60.262749	-66.688563	10.909405
51186		-0.693191	-0.462314	0.433630	-0.343098	60.225179	-66.695482	10.886512
51187		-0.693287	-0.462134	0.433799	-0.342935	60.210170	-66.701569	10.865664
51188		-0.693399	-0.461904	0.433937	-0.342841	60.170559	-66.708293	10.871459
51189		-0.693511	-0.461711	0.434055	-0.342726	60.140910	-66.711405	10.869317
51190		-0.693749	-0.461313	0.434215	-0.342579	60.060877	-66.714259	10.893527
51191		-0.694019	-0.460922	0.434340	-0.342399	59.981361	-66.710485	10.915583
51192		-0.694383	-0.460375	0.434511	-0.342180	59.866785	-66.707252	10.952951
51193		-0.694756	-0.459890	0.434647	-0.341902	59.771475	-66.696435	10.972369
51194		-0.695127	-0.459380	0.434791	-0.341650	59.667446	-66.688146	11.000368
51195		-0.695458	-0.458931	0.434895	-0.341447	59.571380	-66.679485	11.031588
51196		-0.695807	-0.458408	0.434993	-0.341314	59.446682	-66.673721	11.090623
51197		-0.696097	-0.457999	0.435009	-0.341252	59.337460	-66.664807	11.153415
51198		-0.696328	-0.457659	0.434968	-0.341290	59.231478	-66.657063	11.229861
51199		-0.696491	-0.457460	0.434833	-0.341395	59.147666	-66.644644	11.306040
51200		-0.696638	-0.457229	0.434741	-0.341522	59.058101	-66.638636	11.385914
51201		-0.696688	-0.457183	0.434600	-0.341662	59.013840	-66.630335	11.440921
51202		-0.696707	-0.457128	0.434475	-0.341855	58.964002	-66.627693	11.505039
51203		-0.696703	-0.457138	0.434358	-0.341999	58.938576	-66.623587	11.546694
51204		-0.696818	-0.456916	0.434346	-0.342076	58.866250	-66.623908	11.604290
51205		-0.696979	-0.456646	0.434379	-0.342066	58.794235	-66.622758	11.648187
51206		-0.697166	-0.456278	0.434486	-0.342041	58.704592	-66.628066	11.697205
51207		-0.697310	-0.456014	0.434558	-0.342009	58.641089	-66.630281	11.730410
51208		-0.697458	-0.455721	0.434653	-0.341975	58.572675	-66.634792	11.765118
51209		-0.697509	-0.455613	0.434716	-0.341935	58.553234	-66.637889	11.769105
51210		-0.697519	-0.455504	0.434827	-0.341920	58.536940	-66.648688	11.771245
51211		-0.697486	-0.455484	0.434958	-0.341846	58.554335	-66.659330	11.742799
51212		-0.697507	-0.455325	0.435191	-0.341718	58.549971	-66.676379	11.715651
51213		-0.697536	-0.455197	0.435443	-0.341511	58.564158	-66.690762	11.665416
51214		-0.697597	-0.454948	0.435822	-0.341233	58.566534	-66.713973	11.606483
51215		-0.697632	-0.454809	0.436181	-0.340887	58.604960	-66.731700	11.516460
51216		-0.697658	-0.454644	0.436579	-0.340545	58.640111	-66.754022	11.426800
51217		-0.697597	-0.454655	0.436930	-0.340206	58.719988	-66.773670	11.310919
51218		-0.697487	-0.454676	0.437307	-0.339918	58.801159	-66.800240	11.199059
51219		-0.697311	-0.454850	0.437613	-0.339652	58.915233	-66.821938	11.072492
51220		-0.697133	-0.454966	0.437955	-0.339422	59.013871	-66.849582	10.958388
51221		-0.696949	-0.455137	0.438256	-0.339182	59.124595	-66.872393	10.837535
51222		-0.696846	-0.455151	0.438606	-0.338923	59.198462	-66.897345	10.735275
51223		-0.696779	-0.455135	0.438942	-0.338645	59.263684	-66.918820	10.637329
51224		-0.696770	-0.454977	0.439323	-0.338383	59.292696	-66.944661	10.562300
51225		-0.696780	-0.454849	0.439658	-0.338100	59.326344	-66.963848	10.484370
51226		-0.696824	-0.454636	0.440004	-0.337845	59.334248	-66.985113	10.426311
51227		-0.696793	-0.454606	0.440255	-0.337621	59.380102	-66.999673	10.352861
51228		-0.696718	-0.454601	0.440487	-0.337480	59.422484	-67.018059	10.293168
51229		-0.696562	-0.454769	0.440652	-0.337361	59.504106	-67.032318	10.214392
51230		-0.696418	-0.454885	0.440838	-0.337259	59.572130	-67.049631	10.145372
51231		-0.696220	-0.455117	0.440999	-0.337143	59.671838	-67.064543	10.055196
51232		-0.696073	-0.455226	0.441204	-0.337033	59.741301	-67.083305	9.983029
51233		-0.695928	-0.455352	0.441398	-0.336908	59.815816	-67.100022	9.906274
51234		-0.695852	-0.455317	0.441653	-0.336778	59.851867	-67.121486	9.850536
51235		-0.695817	-0.455260	0.441920	-0.336575	59.890834	-67.139042	9.782982
51236		-0.695859	-0.455045	0.442226	-0.336379	59.888046	-67.159499	9.741464
51237		-0.695904	-0.454874	0.442505	-0.336149	59.898045	-67.174908	9.688955
51238		-0.695973	-0.454619	0.442806	-0.335955	59.882810	-67.194402	9.656291
51239		-0.696012	-0.454475	0.443038	-0.335763	59.890587	-67.207140	9.612861
51240		-0.696056	-0.454286	0.443271	-0.335621	59.880873	-67.222996	9.587061
51241		-0.696089	-0.454197	0.443427	-0.335467	59.890941	-67.229901	9.551572
51242		-0.696166	-0.454019	0.443583	-0.335342	59.872106	-67.237671	9.538819
51243		-0.696229	-0.453934	0.443678	-0.335200	59.873995	-67.237997	9.514080
51244		-0.696335	-0.453768	0.443755	-0.335102	59.845500	-67.238215	9.516045
51245		-0.696428	-0.453699	0.443786	-0.334960	59.843747	-67.231078	9.497658
51246		-0.696555	-0.453552	0.443797	-0.334882	59.809840	-67.224818	9.509671
51247		-0.696646	-0.453517	0.443756	-0.334794	59.802762	-67.213026	9.506175
51248		-0.696767	-0.453395	0.443723	-0.334751	59.766961	-67.204307	9.526588
51249		-0.696854	-0.453364	0.443643	-0.334717	59.750783	-67.191713	9.537993
51250		-0.696950	-0.453246	0.443593	-0.334744	59.707087	-67.185868	9.573335
51251		-0.697044	-0.453188	0.443498	-0.334753	59.676588	-67.174072	9.600638
51252		-0.697152	-0.453052	0.443440	-0.334789	59.625624	-67.167659	9.642367
51253		-0.697262	-0.452982	0.443325	-0.334806	59.588487	-67.153775	9.676087
51254		-0.697395	-0.452852	0.443229	-0.334834	59.535150	-67.142119	9.720825
51255		-0.697512	-0.452809	0.443084	-0.334840	59.502733	-67.124222	9.751992
51256		-0.697656	-0.452687	0.442977	-0.334847	59.452463	-67.109841	9.792688
51257		-0.697799	-0.452640	0.442829	-0.334808	59.423365	-67.088268	9.816156
51258		-0.697967	-0.452524	0.442693	-0.334794	59.373307	-67.069007	9.855833
51259		-0.698071	-0.452535	0.442524	-0.334785	59.355432	-67.047737	9.876969
51260		-0.698168	-0.452504	0.442391	-0.334800	59.327443	-67.032144	9.905519
51261		-0.698233	-0.452549	0.442241	-0.334803	59.320649	-67.014604	9.919602
51262		-0.698343	-0.452455	0.442156	-0.334812	59.281420	-67.003471	9.951873
51263		-0.698424	-0.452440	0.442069	-0.334778	59.269371	-66.990116	9.960899
51264		-0.698511	-0.452343	0.442037	-0.334771	59.237822	-66.984294	9.982807
51265		-0.698576	-0.452320	0.441984	-0.334736	59.227864	-66.975033	9.988198
51266		-0.698645	-0.452217	0.441986	-0.334728	59.199063	-66.973220	10.006171
51267		-0.698676	-0.452211	0.441961	-0.334705	59.196338	-66.968429	10.006611
51268		-0.698705	-0.452167	0.441968	-0.334695	59.185635	-66.967952	10.011975
51269		-0.698718	-0.452195	0.441953	-0.334650	59.196327	-66.963381	10.000242
51270		-0.698791	-0.452121	0.441976	-0.334568	59.185787	-66.959351	9.995657
51271		-0.698844	-0.452100	0.441993	-0.334460	59.192932	-66.953608	9.976381
51272		-0.698924	-0.452000	0.442065	-0.334334	59.185512	-66.952118	9.961287
51273		-0.698985	-0.451966	0.442121	-0.334178	59.198639	-66.947530	9.929729
51274		-0.699054	-0.451862	0.442207	-0.334061	59.191324	-66.948383	9.914748
51275		-0.699074	-0.451859	0.442252	-0.333965	59.205675	-66.947111	9.890552
51276		-0.699092	-0.451794	0.442314	-0.333932	59.198310	-66.951543	9.887572
51277		-0.699092	-0.451812	0.442347	-0.333866	59.214060	-66.951072	9.866903
51278		-0.699110	-0.451744	0.442421	-0.333820	59.208594	-66.956047	9.860329
51279		-0.699133	-0.451733	0.442442	-0.333760	59.213985	-66.954225	9.848053
51280		-0.699174	-0.451654	0.442488	-0.333718	59.201657	-66.955802	9.848021
51281		-0.699198	-0.451660	0.442482	-0.333670	59.207116	-66.951696	9.838919
51282		-0.699235	-0.451614	0.442486	-0.333649	59.196451	-66.950137	9.843014
51283		-0.699235	-0.451670	0.442451	-0.333620	59.210845	-66.944523	9.832165
51284		-0.699269	-0.451638	0.442434	-0.333614	59.200081	-66.941563	9.839539
51285		-0.699266	-0.451693	0.442405	-0.333584	59.215187	-66.936655	9.827599
51286		-0.699303	-0.451653	0.442393	-0.333576	59.202880	-66.934145	9.835503
51287		-0.699330	-0.451666	0.442360	-0.333545	59.205411	-66.928055	9.832069
51288		-0.699385	-0.451579	0.442381	-0.333520	59.185654	-66.927699	9.840534
51289		-0.699431	-0.451548	0.442377	-0.333473	59.180724	-66.923388	9.838233
51290		-0.699485	-0.451457	0.442399	-0.333452	59.159520	-66.923405	9.848194
51291		-0.699523	-0.451448	0.442374	-0.333418	59.156850	-66.917783	9.847356
51292		-0.699578	-0.451365	0.442388	-0.333397	59.136891	-66.916791	9.856957
51293		-0.699628	-0.451348	0.442368	-0.333341	59.135052	-66.910205	9.852467
51294		-0.699687	-0.451262	0.442359	-0.333346	59.108525	-66.908257	9.871157
51295		-0.699712	-0.451284	0.442293	-0.333352	59.105867	-66.900874	9.877607
51296		-0.699760	-0.451215	0.442267	-0.333377	59.080330	-66.898569	9.899113
51297		-0.699799	-0.451206	0.442210	-0.333384	59.069490	-66.891948	9.910639
51298		-0.699845	-0.451124	0.442189	-0.333426	59.039115	-66.891062	9.937175
51299		-0.699873	-0.451111	0.442134	-0.333459	59.025183	-66.886403	9.953733
51300		-0.699895	-0.451030	0.442107	-0.333558	58.988571	-66.888916	9.991758
51301		-0.699897	-0.451001	0.442076	-0.333633	58.969087	-66.890030	10.015747
51302		-0.699939	-0.450878	0.442069	-0.333720	58.923952	-66.893480	10.056796
51303		-0.699947	-0.450841	0.442032	-0.333801	58.900764	-66.894170	10.084367
51304		-0.699977	-0.450727	0.442018	-0.333912	58.855171	-66.898495	10.128942
51305		-0.699978	-0.450702	0.441968	-0.334009	58.831959	-66.898861	10.159379
51306		-0.699984	-0.450614	0.441969	-0.334116	58.796102	-66.905106	10.196213
51307		-0.699970	-0.450595	0.441920	-0.334234	58.772739	-66.907126	10.229244
51308		-0.699962	-0.450517	0.441914	-0.334365	58.736539	-66.914383	10.269846
51309		-0.699947	-0.450502	0.441846	-0.334506	58.709446	-66.915659	10.309328
51310		-0.699928	-0.450437	0.441804	-0.334689	58.667467	-66.922359	10.362202
51311		-0.699897	-0.450432	0.441750	-0.334832	58.644674	-66.925582	10.398351
51312		-0.699888	-0.450339	0.441750	-0.334975	58.603746	-66.934229	10.443106
51313		-0.699873	-0.450307	0.441710	-0.335103	58.576483	-66.937767	10.479522
51314		-0.699868	-0.450212	0.441698	-0.335257	58.532300	-66.945690	10.528523
51315		-0.699854	-0.450194	0.441624	-0.335407	58.502908	-66.946765	10.571048
51316		-0.699874	-0.450099	0.441572	-0.335562	58.453337	-66.949688	10.626190
51317		-0.699916	-0.450093	0.441426	-0.335675	58.421910	-66.939465	10.669798
51318		-0.699970	-0.450046	0.441269	-0.335831	58.373078	-66.930304	10.730838
51319		-0.700044	-0.450131	0.440993	-0.335927	58.353430	-66.904173	10.772296
51320		-0.700119	-0.450224	0.440683	-0.336051	58.329069	-66.876073	10.822495
51321		-0.700195	-0.450431	0.440289	-0.336133	58.331466	-66.836302	10.854750
51322		-0.700295	-0.450621	0.439893	-0.336187	58.331366	-66.794306	10.885292
51323		-0.700422	-0.450883	0.439434	-0.336171	58.351461	-66.740534	10.897526
51324		-0.700610	-0.451041	0.438961	-0.336185	58.337158	-66.685681	10.936992
51325		-0.700825	-0.451247	0.438453	-0.336123	58.339859	-66.621989	10.957899
51326		-0.701095	-0.451386	0.437928	-0.336059	58.321680	-66.555012	10.993085
51327		-0.701412	-0.451549	0.437323	-0.335966	58.303968	-66.476701	11.029224
51328		-0.701757	-0.451660	0.436703	-0.335903	58.266906	-66.397712	11.082486
51329		-0.702095	-0.451884	0.435966	-0.335852	58.247190	-66.307037	11.132789
51330		-0.702426	-0.452119	0.435170	-0.335877	58.216230	-66.214500	11.203292
51331		-0.702718	-0.452511	0.434232	-0.335954	58.207951	-66.110749	11.273979
51332		-0.702990	-0.452912	0.433256	-0.336102	58.191668	-66.007541	11.360867
51333		-0.703231	-0.453441	0.432153	-0.336305	58.191090	-65.894606	11.452008
51334		-0.703492	-0.453938	0.431012	-0.336553	58.174204	-65.779791	11.561164
51335		-0.703785	-0.454484	0.429790	-0.336767	58.165528	-65.653547	11.665668
51336		-0.704123	-0.454980	0.428558	-0.336959	58.145105	-65.523991	11.775207
51337		-0.704461	-0.455558	0.427259	-0.337120	58.143295	-65.385597	11.872963
51338		-0.704833	-0.456096	0.425962	-0.337258	58.133917	-65.245214	11.972253
51339		-0.705201	-0.456724	0.424618	-0.337335	58.150407	-65.096646	12.050236
51340		-0.705559	-0.457308	0.423310	-0.337437	58.157052	-64.953764	12.135431
51341		-0.705922	-0.457916	0.421986	-0.337512	58.172028	-64.807523	12.212771
51342		-0.706286	-0.458475	0.420707	-0.337589	58.178860	-64.666270	12.292867
51343		-0.706654	-0.459040	0.419418	-0.337656	58.187992	-64.523447	12.370839
51344		-0.707055	-0.459483	0.418185	-0.337743	58.169552	-64.386889	12.465154
51345		-0.707466	-0.459939	0.416941	-0.337798	58.157313	-64.247213	12.552103
51346		-0.707894	-0.460326	0.415730	-0.337867	58.129721	-64.111309	12.648311
51347		-0.708301	-0.460798	0.414457	-0.337936	58.119116	-63.969521	12.737270
51348		-0.708677	-0.461288	0.413170	-0.338054	58.108039	-63.829923	12.833494
51349		-0.708988	-0.461915	0.411815	-0.338200	58.124351	-63.686591	12.919922
51350		-0.709245	-0.462541	0.410480	-0.338428	58.136161	-63.551525	13.018183
51351		-0.709457	-0.463279	0.409088	-0.338659	58.171557	-63.411986	13.105564
51352		-0.709688	-0.463921	0.407756	-0.338902	58.187907	-63.279108	13.202518
51353		-0.709917	-0.464571	0.406456	-0.339096	58.213862	-63.146884	13.285688
51354		-0.710182	-0.465104	0.405244	-0.339259	58.221742	-63.021335	13.371025
51355		-0.710430	-0.465681	0.404065	-0.339355	58.250073	-62.896122	13.433549
51356		-0.710700	-0.466174	0.402992	-0.339390	58.272153	-62.778152	13.486355
51357		-0.710951	-0.466704	0.401986	-0.339328	58.318261	-62.662353	13.508736
51358		-0.711223	-0.467142	0.401107	-0.339195	58.358445	-62.555463	13.518858
51359		-0.711505	-0.467566	0.400285	-0.338990	58.406646	-62.450356	13.511920
51360		-0.711805	-0.467882	0.399593	-0.338741	58.442802	-62.355869	13.499518
51361		-0.712101	-0.468182	0.398975	-0.338434	58.486078	-62.266015	13.471489
51362		-0.712425	-0.468346	0.398479	-0.338108	58.508172	-62.187059	13.446908
51363		-0.712731	-0.468523	0.398025	-0.337752	58.539632	-62.111469	13.410567
51364		-0.713050	-0.468583	0.397648	-0.337439	58.545502	-62.045762	13.390539
51365		-0.713311	-0.468708	0.397286	-0.337142	58.567390	-61.984238	13.361934
51366		-0.713535	-0.468785	0.396995	-0.336903	58.579314	-61.934448	13.342327
51367		-0.713720	-0.468921	0.396707	-0.336660	58.605978	-61.885739	13.313485
51368		-0.713887	-0.468977	0.396507	-0.336465	58.617335	-61.849423	13.294392
51369		-0.714032	-0.469037	0.396345	-0.336264	58.633316	-61.817396	13.269687
51370		-0.714199	-0.468951	0.396321	-0.336056	58.626282	-61.798622	13.249843
51371		-0.714385	-0.468830	0.396355	-0.335792	58.620178	-61.782398	13.219065
51372		-0.714640	-0.468509	0.396518	-0.335504	58.578335	-61.776310	13.199239
51373		-0.714899	-0.468169	0.396736	-0.335169	58.540378	-61.773332	13.168105
51374		-0.715182	-0.467693	0.397053	-0.334855	58.476279	-61.781142	13.149354
51375		-0.715392	-0.467324	0.397327	-0.334595	58.430443	-61.789607	13.128922
51376		-0.715580	-0.466935	0.397609	-0.334399	58.375683	-61.803083	13.121137
51377		-0.715708	-0.466652	0.397811	-0.334281	58.333257	-61.814106	13.120198
51378		-0.715790	-0.466387	0.397994	-0.334260	58.286171	-61.829668	13.134974
51379		-0.715804	-0.466235	0.398115	-0.334297	58.256732	-61.843983	13.150090
51380		-0.715809	-0.466069	0.398242	-0.334365	58.222022	-61.860935	13.171718
51381		-0.715807	-0.465930	0.398383	-0.334396	58.197807	-61.877394	13.181787
51382		-0.715858	-0.465677	0.398582	-0.334402	58.152970	-61.897022	13.197698
51383		-0.715950	-0.465391	0.398782	-0.334364	58.103556	-61.913310	13.210871
51384		-0.716057	-0.465031	0.399033	-0.334336	58.039512	-61.935050	13.231150
51385		-0.716140	-0.464719	0.399245	-0.334338	57.981595	-61.954951	13.253693
51386		-0.716178	-0.464400	0.399475	-0.334426	57.916300	-61.982702	13.290298
51387		-0.716142	-0.464205	0.399628	-0.334591	57.868863	-62.008724	13.329994
51388		-0.716031	-0.464060	0.399769	-0.334861	57.823864	-62.041260	13.382052
51389		-0.715868	-0.464018	0.399834	-0.335192	57.792504	-62.070663	13.437701
51390		-0.715691	-0.463945	0.399930	-0.335556	57.753635	-62.105539	13.500268
51391		-0.715483	-0.463936	0.400009	-0.335918	57.729335	-62.139424	13.554875
51392		-0.715287	-0.463861	0.400144	-0.336276	57.693619	-62.178602	13.612746
51393		-0.715075	-0.463826	0.400279	-0.336616	57.669209	-62.217258	13.661617
51394		-0.714891	-0.463693	0.400494	-0.336933	57.629472	-62.262182	13.712259
51395		-0.714702	-0.463574	0.400722	-0.337227	57.595917	-62.307345	13.755781
51396		-0.714531	-0.463366	0.401056	-0.337479	57.552983	-62.360813	13.793801
51397		-0.714337	-0.463199	0.401395	-0.337715	57.521974	-62.414489	13.822377
51398		-0.714144	-0.462942	0.401821	-0.337968	57.474874	-62.478315	13.857918
51399		-0.713934	-0.462745	0.402257	-0.338164	57.447968	-62.540513	13.873799
51400		-0.713729	-0.462477	0.402770	-0.338352	57.411149	-62.610213	13.890176
51401		-0.713527	-0.462234	0.403269	-0.338516	57.380809	-62.677059	13.900676
51402		-0.713329	-0.461936	0.403810	-0.338694	57.339466	-62.749025	13.917220
51403		-0.713116	-0.461715	0.404333	-0.338820	57.320133	-62.816692	13.915130
51404		-0.712920	-0.461438	0.404877	-0.338961	57.287175	-62.886973	13.921987
51405		-0.712733	-0.461214	0.405357	-0.339084	57.263520	-62.949296	13.924592
51406		-0.712572	-0.460944	0.405851	-0.339202	57.229710	-63.011937	13.931950
51407		-0.712405	-0.460745	0.406305	-0.339278	57.213871	-63.068473	13.925498
51408		-0.712253	-0.460511	0.406765	-0.339364	57.188783	-63.125696	13.925653
51409		-0.712093	-0.460356	0.407160	-0.339436	57.179460	-63.175631	13.917994
51410		-0.711943	-0.460177	0.407548	-0.339528	57.161208	-63.225655	13.918802
51411		-0.711788	-0.460085	0.407856	-0.339607	57.159009	-63.266720	13.912652
51412		-0.711651	-0.459948	0.408155	-0.339722	57.141627	-63.308208	13.920789
51413		-0.711515	-0.459883	0.408385	-0.339817	57.137797	-63.341509	13.922069
51414		-0.711410	-0.459765	0.408621	-0.339913	57.120895	-63.374465	13.931152
51415		-0.711300	-0.459717	0.408794	-0.340000	57.117079	-63.400497	13.934550
51416		-0.711220	-0.459626	0.408957	-0.340093	57.100654	-63.424921	13.947068
51417		-0.711150	-0.459608	0.409050	-0.340153	57.099446	-63.439965	13.950107
51418		-0.711079	-0.459574	0.409131	-0.340249	57.089778	-63.455715	13.963444
51419		-0.711009	-0.459607	0.409133	-0.340348	57.089736	-63.463251	13.975734
51420		-0.710950	-0.459616	0.409144	-0.340448	57.084071	-63.471486	13.991096
51421		-0.710905	-0.459677	0.409080	-0.340535	57.086238	-63.470801	14.004210
51422		-0.710886	-0.459679	0.409054	-0.340604	57.078353	-63.472262	14.019134
51423		-0.710872	-0.459733	0.408993	-0.340633	57.084079	-63.467969	14.022657
51424		-0.710886	-0.459725	0.408969	-0.340644	57.078664	-63.465553	14.028714
51425		-0.710899	-0.459779	0.408905	-0.340620	57.088740	-63.457233	14.023126
51426		-0.710921	-0.459799	0.408871	-0.340588	57.093702	-63.451299	14.017927
51427		-0.710925	-0.459871	0.408813	-0.340553	57.109621	-63.443231	14.007128
51428		-0.710933	-0.459884	0.408804	-0.340529	57.114359	-63.440773	14.001729
51429		-0.710943	-0.459945	0.408733	-0.340510	57.125208	-63.432034	13.996641
51430		-0.710924	-0.459984	0.408714	-0.340520	57.132402	-63.431134	13.994593
51431		-0.710923	-0.460053	0.408670	-0.340482	57.149320	-63.424490	13.982001
51432		-0.710930	-0.460072	0.408668	-0.340445	57.157335	-63.422123	13.972495
51433		-0.710937	-0.460144	0.408629	-0.340380	57.177564	-63.414323	13.954248
51434		-0.710939	-0.460190	0.408630	-0.340312	57.195477	-63.410789	13.934701
51435		-0.710935	-0.460297	0.408613	-0.340197	57.231204	-63.403036	13.899481
51436		-0.710949	-0.460318	0.408671	-0.340067	57.253404	-63.401733	13.866448
51437		-0.710938	-0.460381	0.408746	-0.339917	57.289261	-63.401762	13.821555
51438		-0.710949	-0.460373	0.408879	-0.339744	57.314683	-63.406153	13.776999
51439		-0.710936	-0.460386	0.409018	-0.339587	57.344576	-63.412691	13.731198
51440		-0.710942	-0.460319	0.409206	-0.339439	57.357676	-63.424219	13.694191
51441		-0.710955	-0.460236	0.409400	-0.339291	57.367344	-63.436214	13.658735
51442		-0.710973	-0.460082	0.409642	-0.339167	57.361495	-63.454404	13.633204
51443		-0.710975	-0.459972	0.409855	-0.339057	57.362728	-63.470700	13.606668
51444		-0.710959	-0.459851	0.410058	-0.339009	57.354748	-63.489901	13.594174
51445		-0.710930	-0.459798	0.410214	-0.338953	57.360851	-63.504178	13.574526
51446		-0.710920	-0.459710	0.410374	-0.338900	57.357963	-63.518294	13.560664
51447		-0.710881	-0.459700	0.410494	-0.338851	57.370756	-63.529410	13.539967
51448		-0.710832	-0.459652	0.410652	-0.338825	57.375664	-63.546096	13.524712
51449		-0.710773	-0.459645	0.410787	-0.338794	57.389394	-63.560271	13.504746
51450		-0.710723	-0.459569	0.410973	-0.338777	57.388882	-63.580411	13.492430
51451		-0.710681	-0.459492	0.411154	-0.338750	57.388457	-63.599179	13.479049
51452		-0.710674	-0.459342	0.411370	-0.338706	57.374195	-63.619666	13.470032
51453		-0.710670	-0.459209	0.411554	-0.338671	57.360566	-63.637174	13.463598
51454		-0.710699	-0.459047	0.411730	-0.338616	57.340484	-63.651933	13.459177
51455		-0.710707	-0.458946	0.411870	-0.338567	57.331833	-63.663641	13.450466
51456		-0.710729	-0.458841	0.411993	-0.338511	57.321580	-63.673003	13.442791
51457		-0.710740	-0.458815	0.412057	-0.338447	57.326504	-63.675922	13.428075
51458		-0.710750	-0.458798	0.412104	-0.338393	57.331401	-63.677619	13.415719
51459		-0.710753	-0.458857	0.412086	-0.338328	57.350605	-63.672138	13.396784
51460		-0.710736	-0.458923	0.412062	-0.338304	57.367329	-63.668800	13.384979
51461		-0.710734	-0.459017	0.411975	-0.338285	57.385047	-63.658692	13.376564
51462		-0.710709	-0.459103	0.411920	-0.338289	57.401480	-63.653850	13.370100
51463		-0.710684	-0.459243	0.411791	-0.338307	57.423809	-63.642021	13.365918
51464		-0.710658	-0.459348	0.411692	-0.338339	57.438608	-63.634087	13.366425
51465		-0.710637	-0.459503	0.411548	-0.338348	57.463925	-63.620069	13.360212
51466		-0.710610	-0.459631	0.411448	-0.338354	57.486780	-63.610554	13.352523
51467		-0.710562	-0.459812	0.411329	-0.338353	57.522151	-63.599484	13.337460
51468		-0.710527	-0.459928	0.411289	-0.338317	57.551298	-63.594277	13.317418
51469		-0.710496	-0.460057	0.411253	-0.338252	57.586616	-63.587841	13.289608
51470		-0.710481	-0.460104	0.411285	-0.338181	57.607857	-63.587701	13.265886
51471		-0.710486	-0.460111	0.411345	-0.338088	57.623553	-63.588823	13.241234
51472		-0.710482	-0.460062	0.411477	-0.338000	57.631209	-63.598098	13.218123
51473		-0.710480	-0.460015	0.411610	-0.337906	57.640188	-63.607008	13.193292
51474		-0.710479	-0.459918	0.411792	-0.337821	57.640038	-63.621461	13.172382
51475		-0.710450	-0.459879	0.411940	-0.337754	57.649920	-63.634249	13.149553
51476		-0.710398	-0.459835	0.412082	-0.337750	57.652742	-63.650454	13.139153
51477		-0.710315	-0.459860	0.412209	-0.337735	57.672735	-63.665334	13.117723
51478		-0.710233	-0.459854	0.412344	-0.337751	57.682702	-63.682679	13.105788
51479		-0.710153	-0.459879	0.412432	-0.337778	57.695342	-63.695699	13.096384
51480		-0.710065	-0.459864	0.412565	-0.337822	57.700510	-63.714614	13.091040
51481		-0.709986	-0.459861	0.412682	-0.337849	57.708619	-63.730678	13.082683
51482		-0.709932	-0.459773	0.412845	-0.337882	57.698764	-63.751175	13.083459
51483		-0.709903	-0.459675	0.413001	-0.337885	57.688338	-63.768654	13.081381
51484		-0.709913	-0.459510	0.413178	-0.337873	57.663988	-63.786338	13.084780
51485		-0.709934	-0.459365	0.413341	-0.337827	57.646387	-63.800355	13.080560
51486		-0.709980	-0.459183	0.413513	-0.337766	57.621430	-63.813911	13.078504
51487		-0.710028	-0.459070	0.413610	-0.337700	57.607210	-63.819161	13.073546
51488		-0.710036	-0.458979	0.413708	-0.337688	57.594346	-63.828532	13.074326
51489		-0.709998	-0.459008	0.413712	-0.337721	57.599328	-63.831907	13.075215
51490		-0.709941	-0.459028	0.413699	-0.337831	57.593544	-63.838095	13.093231
51491		-0.709874	-0.459087	0.413651	-0.337950	57.593746	-63.841494	13.110661
51492		-0.709817	-0.459073	0.413637	-0.338106	57.574860	-63.850128	13.142522
51493		-0.709801	-0.459050	0.413588	-0.338232	57.553104	-63.852293	13.174480
51494		-0.709810	-0.458948	0.413599	-0.338338	57.518438	-63.858916	13.208365
51495		-0.709856	-0.458854	0.413558	-0.338420	57.482804	-63.857793	13.242970
51496		-0.709908	-0.458728	0.413551	-0.338487	57.443655	-63.859264	13.275947
51497		-0.709950	-0.458694	0.413490	-0.338521	57.426039	-63.853392	13.294478
51498		-0.709972	-0.458677	0.413425	-0.338577	57.410367	-63.849072	13.314891
51499		-0.709963	-0.458750	0.413323	-0.338622	57.415450	-63.841037	13.323138
51500		-0.709939	-0.458824	0.413239	-0.338675	57.421713	-63.835661	13.330698
51501		-0.709886	-0.458945	0.413142	-0.338741	57.437838	-63.830654	13.334503
51502		-0.709870	-0.458989	0.413080	-0.338791	57.439013	-63.827208	13.343463
51503		-0.709871	-0.459027	0.413026	-0.338802	57.442638	-63.822197	13.345691
51504		-0.709910	-0.458961	0.413040	-0.338792	57.427767	-63.822003	13.352819
51505		-0.709956	-0.458894	0.413054	-0.338771	57.413624	-63.820946	13.358105
51506		-0.710013	-0.458782	0.413101	-0.338745	57.391245	-63.822822	13.366117
51507		-0.710063	-0.458704	0.413141	-0.338697	57.379377	-63.822987	13.365091
51508		-0.710100	-0.458615	0.413188	-0.338682	57.362087	-63.826114	13.371280
51509		-0.710125	-0.458573	0.413233	-0.338632	57.360091	-63.827386	13.363644
51510		-0.710147	-0.458523	0.413297	-0.338576	57.358199	-63.830503	13.354264
51511		-0.710169	-0.458506	0.413339	-0.338502	57.364390	-63.830249	13.338763
51512		-0.710194	-0.458454	0.413416	-0.338425	57.365073	-63.833453	13.324431
51513		-0.710221	-0.458424	0.413479	-0.338333	57.371622	-63.834236	13.305288
51514		-0.710243	-0.458363	0.413569	-0.338261	57.370776	-63.839168	13.291725
51515		-0.710245	-0.458352	0.413632	-0.338194	57.379804	-63.842159	13.274314
51516		-0.710248	-0.458300	0.413709	-0.338163	57.376616	-63.848498	13.268046
51517		-0.710255	-0.458283	0.413772	-0.338094	57.384337	-63.851200	13.251069
51518		-0.710257	-0.458230	0.413872	-0.338040	57.385177	-63.858715	13.238118
51519		-0.710296	-0.458189	0.413928	-0.337943	57.388581	-63.858209	13.220771
51520		-0.710340	-0.458125	0.414021	-0.337824	57.391560	-63.860336	13.198792
51521		-0.710403	-0.458096	0.414079	-0.337661	57.403988	-63.855752	13.167430
51522		-0.710475	-0.458039	0.414163	-0.337482	57.413356	-63.852849	13.134529
51523		-0.710537	-0.458030	0.414206	-0.337312	57.430108	-63.846357	13.100667
51524		-0.710593	-0.458001	0.414275	-0.337149	57.443795	-63.843142	13.067878
51525		-0.710636	-0.458017	0.414278	-0.337033	57.458340	-63.835910	13.044377
51526		-0.710692	-0.457995	0.414301	-0.336915	57.465376	-63.830323	13.023950
51527		-0.710718	-0.458024	0.414298	-0.336825	57.480540	-63.824290	13.003557
51528		-0.710755	-0.458017	0.414295	-0.336761	57.483984	-63.819531	12.993672
51529		-0.710776	-0.458033	0.414281	-0.336711	57.491141	-63.814711	12.983853
51530		-0.710804	-0.458008	0.414286	-0.336679	57.488245	-63.812697	12.981295
51531		-0.710844	-0.457999	0.414280	-0.336616	57.490678	-63.807445	12.972313
51532		-0.710888	-0.457953	0.414302	-0.336559	57.485951	-63.805475	12.966890
51533		-0.710949	-0.457934	0.414294	-0.336465	57.488592	-63.797782	12.954012
51534		-0.711014	-0.457883	0.414327	-0.336356	57.488348	-63.793454	12.938731
51535		-0.711076	-0.457872	0.414331	-0.336236	57.496201	-63.785604	12.918787
51536		-0.711147	-0.457827	0.414377	-0.336089	57.502098	-63.780372	12.894258
51537		-0.711234	-0.457796	0.414406	-0.335911	57.512424	-63.771304	12.864128
51538		-0.711340	-0.457699	0.414479	-0.335730	57.510346	-63.766149	12.838752
51539		-0.711441	-0.457619	0.414545	-0.335542	57.512700	-63.759995	12.810108
51540		-0.711544	-0.457503	0.414613	-0.335399	57.502040	-63.756496	12.795031
51541		-0.711631	-0.457429	0.414648	-0.335272	57.497364	-63.750807	12.780136
51542		-0.711683	-0.457341	0.414699	-0.335218	57.484513	-63.751755	12.778378
51543		-0.711722	-0.457309	0.414683	-0.335199	57.476256	-63.747966	12.782137
51544		-0.711756	-0.457232	0.414703	-0.335206	57.457795	-63.749529	12.793252
51545		-0.711802	-0.457163	0.414710	-0.335194	57.441761	-63.748323	12.801185
51546		-0.711886	-0.457015	0.414761	-0.335154	57.412117	-63.749167	12.811584
51547		-0.711984	-0.456886	0.414802	-0.335072	57.389853	-63.746284	12.812760
51548		-0.712068	-0.456730	0.414884	-0.335005	57.363474	-63.748965	12.816088
51549		-0.712160	-0.456616	0.414917	-0.334923	57.344684	-63.745413	12.815574
51550		-0.712229	-0.456489	0.414977	-0.334875	57.321989	-63.747147	12.820196
51551		-0.712294	-0.456395	0.414991	-0.334849	57.301251	-63.745511	12.828952
51552		-0.712335	-0.456305	0.415019	-0.334850	57.280713	-63.747278	12.840188
51553		-0.712371	-0.456270	0.415003	-0.334839	57.271096	-63.744010	12.845662
51554		-0.712412	-0.456205	0.415013	-0.334827	57.256426	-63.743317	12.852667
51555		-0.712458	-0.456164	0.415017	-0.334784	57.249937	-63.740044	12.851026
51556		-0.712532	-0.456083	0.415039	-0.334708	57.238115	-63.736142	12.847601
51557		-0.712604	-0.456025	0.415067	-0.334598	57.235497	-63.731149	12.834024
51558		-0.712672	-0.455961	0.415099	-0.334501	57.230549	-63.727305	12.823097
51559		-0.712746	-0.455932	0.415091	-0.334393	57.231957	-63.718544	12.809358
51560		-0.712803	-0.455892	0.415096	-0.334319	57.228605	-63.713515	12.801892
51561		-0.712832	-0.455903	0.415076	-0.334268	57.233899	-63.707705	12.793457
51562		-0.712842	-0.455906	0.415073	-0.334246	57.236474	-63.705916	12.789243
51563		-0.712833	-0.455942	0.415054	-0.334242	57.244102	-63.703915	12.785136
51564		-0.712839	-0.455939	0.415052	-0.334234	57.243959	-63.703167	12.784381
51565		-0.712847	-0.455941	0.415054	-0.334211	57.246637	-63.701888	12.779686
51566		-0.712869	-0.455889	0.415090	-0.334190	57.238629	-63.703997	12.780065
51567		-0.712899	-0.455873	0.415105	-0.334130	57.241275	-63.701433	12.770062
51568		-0.712926	-0.455823	0.415161	-0.334070	57.239108	-63.703254	12.760787
51569		-0.712943	-0.455821	0.415188	-0.334005	57.246818	-63.702163	12.746330
51570		-0.712949	-0.455798	0.415256	-0.333937	57.253561	-63.705491	12.729878
51571		-0.712959	-0.455789	0.415324	-0.333844	57.265923	-63.707349	12.706842
51572		-0.712970	-0.455723	0.415421	-0.333790	57.263036	-63.714271	12.696438
51573		-0.712968	-0.455681	0.415527	-0.333721	57.268561	-63.721763	12.678320
51574		-0.712974	-0.455590	0.415660	-0.333665	57.263115	-63.732642	12.667181
51575		-0.712960	-0.455523	0.415790	-0.333625	57.262047	-63.744626	12.655395
51576		-0.712962	-0.455398	0.415946	-0.333597	57.247514	-63.759505	12.651971
51577		-0.712962	-0.455282	0.416081	-0.333586	57.231597	-63.773232	12.652807
51578		-0.712955	-0.455160	0.416226	-0.333587	57.214266	-63.788800	12.655246
51579		-0.712939	-0.455089	0.416325	-0.333594	57.204909	-63.800129	12.656357
51580		-0.712921	-0.455007	0.416442	-0.333599	57.194649	-63.813233	12.656612
51581		-0.712913	-0.454954	0.416518	-0.333592	57.189145	-63.821124	12.654847
51582		-0.712892	-0.454883	0.416649	-0.333572	57.185193	-63.834461	12.647231
51583		-0.712878	-0.454840	0.416737	-0.333550	57.184852	-63.843016	12.639688
51584		-0.712854	-0.454762	0.416873	-0.333537	57.178951	-63.857349	12.634009
51585		-0.712824	-0.454687	0.417013	-0.333528	57.174199	-63.872448	12.627834
51586		-0.712812	-0.454553	0.417184	-0.333524	57.156683	-63.890732	12.628398
51587		-0.712806	-0.454401	0.417357	-0.333527	57.133894	-63.909299	12.632990
51588		-0.712811	-0.454209	0.417550	-0.333535	57.102424	-63.930109	12.642515
51589		-0.712815	-0.454049	0.417710	-0.333545	57.075803	-63.947488	12.651207
51590		-0.712838	-0.453879	0.417879	-0.333515	57.050854	-63.963132	12.653288
51591		-0.712852	-0.453756	0.418013	-0.333485	57.034991	-63.975259	12.651649
51592		-0.712857	-0.453646	0.418150	-0.333452	57.022758	-63.987916	12.647413
51593		-0.712833	-0.453606	0.418246	-0.333439	57.022875	-63.998007	12.640267
51594		-0.712804	-0.453556	0.418340	-0.333452	57.018027	-64.009428	12.639482
51595		-0.712786	-0.453495	0.418431	-0.333457	57.010772	-64.019809	12.639422
51596		-0.712782	-0.453395	0.418537	-0.333469	56.994138	-64.031814	12.645302
51597		-0.712786	-0.453316	0.418608	-0.333478	56.979895	-64.039720	12.651133
51598		-0.712793	-0.453187	0.418705	-0.333517	56.952231	-64.051976	12.667671
51599		-0.712807	-0.453114	0.418755	-0.333523	56.937756	-64.057207	12.674543
51600		-0.712823	-0.453030	0.418818	-0.333524	56.922026	-64.063473	12.680955
51601		-0.712820	-0.453022	0.418842	-0.333511	56.923581	-64.065395	12.676930
51602		-0.712822	-0.453013	0.418875	-0.333480	56.927066	-64.067155	12.669009
51603		-0.712829	-0.453033	0.418888	-0.333419	56.939230	-64.064979	12.653142
51604		-0.712863	-0.453005	0.418924	-0.333340	56.942499	-64.063654	12.639236
51605		-0.712907	-0.452990	0.418950	-0.333233	56.950718	-64.059359	12.619365
51606		-0.712963	-0.452923	0.419010	-0.333128	56.948778	-64.058428	12.604064
51607		-0.713019	-0.452875	0.419052	-0.333022	56.949993	-64.055484	12.587646
51608		-0.713058	-0.452817	0.419092	-0.332967	56.943735	-64.055674	12.582464
51609		-0.713080	-0.452815	0.419073	-0.332945	56.943533	-64.051963	12.580935
51610		-0.713086	-0.452817	0.419071	-0.332935	56.944552	-64.050953	12.579100
51611		-0.713098	-0.452834	0.419032	-0.332934	56.945281	-64.046463	12.580774
51612		-0.713122	-0.452824	0.419032	-0.332896	56.946097	-64.043754	12.575498
51613		-0.713168	-0.452838	0.418990	-0.332832	56.951365	-64.034469	12.566653
51614		-0.713235	-0.452796	0.419007	-0.332724	56.951783	-64.028586	12.552039
51615		-0.713300	-0.452798	0.418996	-0.332596	56.962875	-64.018615	12.529810
51616		-0.713368	-0.452768	0.419022	-0.332456	56.970217	-64.011959	12.506383
51617		-0.713423	-0.452783	0.419011	-0.332334	56.983924	-64.002551	12.483287
51618		-0.713463	-0.452783	0.419021	-0.332232	56.994157	-63.997024	12.463698
51619		-0.713494	-0.452815	0.419004	-0.332145	57.008379	-63.989595	12.445031
51620		-0.713530	-0.452802	0.419001	-0.332089	57.009959	-63.985151	12.437176
51621		-0.713578	-0.452837	0.418962	-0.331989	57.024018	-63.974241	12.418251
51622		-0.713623	-0.452840	0.418947	-0.331906	57.030812	-63.967030	12.404587
51623		-0.713682	-0.452876	0.418900	-0.331790	57.045780	-63.954072	12.383558
51624		-0.713740	-0.452898	0.418883	-0.331655	57.062045	-63.943212	12.357607
51625		-0.713800	-0.452949	0.418834	-0.331519	57.082471	-63.928958	12.330928
51626		-0.713850	-0.452988	0.418815	-0.331381	57.102853	-63.918038	12.302199
51627		-0.713896	-0.453060	0.418765	-0.331247	57.128570	-63.904093	12.272495
51628		-0.713942	-0.453091	0.418758	-0.331115	57.147483	-63.894950	12.244788
51629		-0.714006	-0.453119	0.418737	-0.330965	57.166044	-63.882706	12.215815
51630		-0.714082	-0.453092	0.418785	-0.330776	57.180569	-63.875313	12.180755
51631		-0.714192	-0.453061	0.418791	-0.330576	57.190885	-63.862078	12.149047
51632		-0.714288	-0.453007	0.418842	-0.330376	57.199862	-63.853871	12.115795
51633		-0.714370	-0.453009	0.418854	-0.330180	57.218647	-63.842220	12.079244
51634		-0.714434	-0.453011	0.418871	-0.330019	57.235189	-63.833428	12.047958
51635		-0.714476	-0.453042	0.418872	-0.329884	57.255140	-63.824926	12.018899
51636		-0.714499	-0.453070	0.418882	-0.329783	57.272348	-63.819789	11.995159
51637		-0.714492	-0.453139	0.418858	-0.329733	57.292265	-63.814616	11.978020
51638		-0.714484	-0.453178	0.418874	-0.329678	57.308733	-63.813528	11.960063
51639		-0.714497	-0.453215	0.418865	-0.329610	57.323157	-63.808390	11.943282
51640		-0.714527	-0.453211	0.418900	-0.329505	57.335040	-63.805581	11.920929
51641		-0.714562	-0.453237	0.418915	-0.329375	57.354652	-63.799021	11.891797
51642		-0.714588	-0.453256	0.418950	-0.329248	57.374232	-63.795070	11.862014
51643		-0.714620	-0.453307	0.418962	-0.329094	57.401960	-63.786944	11.825098
51644		-0.714655	-0.453333	0.418999	-0.328932	57.426699	-63.780969	11.787668
51645		-0.714694	-0.453357	0.419027	-0.328781	57.448798	-63.774486	11.753702
51646		-0.714742	-0.453353	0.419068	-0.328629	57.465308	-63.769139	11.722324
51647		-0.714753	-0.453398	0.419083	-0.328525	57.487368	-63.764720	11.694952
51648		-0.714757	-0.453414	0.419118	-0.328447	57.501912	-63.764000	11.674336
51649		-0.714750	-0.453458	0.419136	-0.328379	57.521106	-63.762246	11.652993
51650		-0.714742	-0.453453	0.419193	-0.328333	57.529418	-63.765953	11.638816
51651		-0.714720	-0.453480	0.419228	-0.328298	57.542861	-63.768271	11.624224
51652		-0.714694	-0.453478	0.419286	-0.328283	57.549574	-63.774297	11.614877
51653		-0.714668	-0.453483	0.419324	-0.328283	57.554845	-63.778987	11.609354
51654		-0.714659	-0.453439	0.419415	-0.328248	57.555612	-63.786975	11.599250
51655		-0.714669	-0.453376	0.419496	-0.328208	57.551040	-63.793189	11.592526
51656		-0.714687	-0.453273	0.419624	-0.328148	57.542664	-63.803018	11.582875
51657		-0.714704	-0.453199	0.419719	-0.328093	57.537943	-63.809580	11.573432
51658		-0.714725	-0.453102	0.419838	-0.328029	57.530557	-63.818183	11.563267
51659		-0.714738	-0.453046	0.419918	-0.327975	57.528740	-63.823341	11.553086
51660		-0.714744	-0.452972	0.420034	-0.327915	57.526746	-63.832271	11.540138
51661		-0.714748	-0.452917	0.420121	-0.327870	57.525433	-63.838950	11.530296
51662		-0.714776	-0.452850	0.420210	-0.327790	57.523965	-63.843164	11.516145
51663		-0.714822	-0.452794	0.420240	-0.327726	57.518371	-63.841717	11.509984
51664		-0.714857	-0.452730	0.420300	-0.327662	57.513483	-63.843571	11.501657
51665		-0.714903	-0.452709	0.420307	-0.327583	57.515679	-63.838690	11.490065
51666		-0.714953	-0.452659	0.420333	-0.327509	57.511923	-63.836083	11.481716
51667		-0.714996	-0.452656	0.420325	-0.327431	57.517014	-63.829794	11.469391
51668		-0.715036	-0.452639	0.420311	-0.327386	57.515127	-63.824723	11.465829
51669		-0.715078	-0.452636	0.420277	-0.327339	57.515183	-63.817443	11.462013
51670		-0.715114	-0.452609	0.420260	-0.327319	57.508190	-63.813660	11.464812
51671		-0.715176	-0.452580	0.420202	-0.327300	57.496574	-63.804818	11.473003
51672		-0.715226	-0.452529	0.420189	-0.327277	57.483957	-63.800862	11.478775
51673		-0.715281	-0.452500	0.420151	-0.327246	57.475391	-63.793633	11.482408
51674		-0.715330	-0.452453	0.420142	-0.327216	57.464995	-63.789836	11.485703
51675		-0.715382	-0.452423	0.420111	-0.327183	57.456990	-63.783321	11.488390
51676		-0.715416	-0.452394	0.420102	-0.327160	57.450605	-63.780219	11.490015
51677		-0.715473	-0.452344	0.420079	-0.327134	57.437781	-63.774927	11.496099
51678		-0.715521	-0.452264	0.420094	-0.327122	57.419616	-63.774577	11.504895
51679		-0.715581	-0.452186	0.420094	-0.327097	57.401764	-63.771659	11.512942
51680		-0.715649	-0.452076	0.420111	-0.327078	57.376915	-63.770714	11.524875
51681		-0.715722	-0.451990	0.420110	-0.327040	57.357812	-63.766716	11.532074
51682		-0.715797	-0.451885	0.420114	-0.327016	57.333249	-63.763817	11.544142
51683		-0.715853	-0.451820	0.420093	-0.327010	57.315013	-63.759828	11.555827
51684		-0.715914	-0.451745	0.420073	-0.327005	57.294120	-63.755893	11.569217
51685		-0.715966	-0.451716	0.420016	-0.327003	57.281148	-63.748372	11.580343
51686		-0.716007	-0.451663	0.420004	-0.327005	57.266152	-63.746110	11.590478
51687		-0.716059	-0.451619	0.419949	-0.327022	57.247757	-63.739892	11.607218
51688		-0.716106	-0.451552	0.419944	-0.327016	57.230753	-63.737788	11.617147
51689		-0.716155	-0.451492	0.419930	-0.327011	57.214405	-63.734781	11.627432
51690		-0.716213	-0.451392	0.419958	-0.326986	57.193625	-63.734934	11.635574
51691		-0.716268	-0.451310	0.419965	-0.326967	57.174986	-63.733245	11.644380
51692		-0.716310	-0.451222	0.419989	-0.326967	57.154735	-63.734655	11.655458
51693		-0.716341	-0.451154	0.419991	-0.326991	57.135299	-63.735453	11.670352
51694		-0.716371	-0.451074	0.420008	-0.327014	57.114442	-63.737713	11.685066
51695		-0.716396	-0.451014	0.420016	-0.327032	57.098236	-63.738973	11.696864
51696		-0.716428	-0.450924	0.420048	-0.327044	57.077257	-63.742285	11.709519
51697		-0.716468	-0.450853	0.420069	-0.327028	57.062335	-63.742573	11.715585
51698		-0.716509	-0.450751	0.420126	-0.327006	57.043923	-63.746323	11.720883
51699		-0.716543	-0.450688	0.420153	-0.326984	57.032233	-63.747078	11.723852
51700		-0.716558	-0.450606	0.420217	-0.326980	57.017960	-63.753349	11.728482
51701		-0.716574	-0.450552	0.420264	-0.326959	57.010523	-63.756806	11.727791
51702		-0.716595	-0.450453	0.420351	-0.326938	56.995461	-63.764385	11.729553
51703		-0.716615	-0.450379	0.420407	-0.326925	56.983183	-63.769055	11.732284
51704		-0.716639	-0.450282	0.420472	-0.326921	56.965089	-63.775140	11.739284
51705		-0.716662	-0.450209	0.420520	-0.326909	56.952261	-63.779093	11.742950
51706		-0.716680	-0.450130	0.420584	-0.326895	56.939532	-63.784682	11.745418
51707		-0.716687	-0.450105	0.420603	-0.326892	56.935160	-63.786376	11.746691
51708		-0.716683	-0.450073	0.420633	-0.326905	56.928746	-63.790357	11.750471
51709		-0.716658	-0.450081	0.420620	-0.326967	56.923926	-63.793015	11.761987
51710		-0.716623	-0.450093	0.420638	-0.327005	56.925423	-63.797888	11.764691
51711		-0.716613	-0.450079	0.420644	-0.327036	56.919748	-63.800546	11.771712
51712		-0.716614	-0.450026	0.420700	-0.327036	56.911839	-63.806478	11.773336
51713		-0.716622	-0.449977	0.420754	-0.327016	56.906244	-63.810930	11.771296
51714		-0.716653	-0.449892	0.420834	-0.326962	56.897138	-63.815684	11.765596
51715		-0.716689	-0.449822	0.420900	-0.326895	56.891606	-63.818099	11.756950
51716		-0.716720	-0.449755	0.420967	-0.326832	56.886495	-63.820965	11.748535
51717		-0.716715	-0.449746	0.420998	-0.326817	56.888600	-63.823600	11.743600
51718		-0.716692	-0.449745	0.421031	-0.326825	56.891011	-63.828204	11.741193
51719		-0.716662	-0.449782	0.421027	-0.326846	56.898200	-63.829707	11.739551
51720		-0.716649	-0.449776	0.421041	-0.326864	56.896372	-63.832476	11.742129
51721		-0.716650	-0.449765	0.421046	-0.326870	56.893531	-63.833288	11.744382
51722		-0.716671	-0.449717	0.421081	-0.326846	56.886751	-63.835177	11.743538
51723		-0.716709	-0.449683	0.421090	-0.326796	56.883504	-63.832435	11.738808
51724		-0.716757	-0.449618	0.421150	-0.326705	56.880704	-63.832567	11.725805
51725		-0.716814	-0.449572	0.421159	-0.326631	56.876288	-63.827953	11.718918
51726		-0.716853	-0.449545	0.421162	-0.326580	56.874308	-63.824420	11.713636
51727		-0.716857	-0.449585	0.421134	-0.326552	56.884232	-63.819804	11.705666
51728		-0.716859	-0.449616	0.421108	-0.326539	56.890782	-63.816247	11.701455
51729		-0.716865	-0.449658	0.421047	-0.326544	56.895140	-63.809887	11.702901
51730		-0.716868	-0.449668	0.421029	-0.326548	56.895636	-63.808101	11.703999
51731		-0.716866	-0.449702	0.420984	-0.326565	56.898316	-63.804223	11.707066
51732		-0.716860	-0.449712	0.420967	-0.326586	56.897280	-63.803756	11.711371
51733		-0.716870	-0.449726	0.420928	-0.326593	56.896568	-63.799768	11.714829
51734		-0.716887	-0.449706	0.420925	-0.326587	56.891568	-63.798697	11.717384
51735		-0.716898	-0.449702	0.420909	-0.326591	56.888482	-63.796833	11.720676
51736		-0.716910	-0.449688	0.420913	-0.326578	56.886549	-63.796312	11.720024
51737		-0.716918	-0.449698	0.420901	-0.326561	56.889468	-63.793874	11.716739
51738		-0.716919	-0.449709	0.420904	-0.326541	56.894271	-63.793082	11.711240
51739		-0.716909	-0.449738	0.420905	-0.326522	56.903593	-63.792383	11.703051
51740		-0.716897	-0.449738	0.420924	-0.326524	56.905333	-63.794745	11.701074
51741		-0.716892	-0.449746	0.420927	-0.326521	56.907884	-63.795063	11.698973
51742		-0.716884	-0.449736	0.420946	-0.326527	56.906823	-63.797637	11.699255
51743		-0.716852	-0.449751	0.420964	-0.326552	56.910246	-63.801786	11.699197
51744		-0.716829	-0.449728	0.421013	-0.326572	56.907410	-63.808733	11.700656
51745		-0.716794	-0.449727	0.421040	-0.326615	56.905913	-63.814892	11.705325
51746		-0.716773	-0.449703	0.421076	-0.326647	56.900464	-63.821031	11.710701
51747		-0.716744	-0.449711	0.421101	-0.326668	56.903119	-63.825622	11.710156
51748		-0.716719	-0.449701	0.421148	-0.326677	56.904452	-63.831755	11.707768
51749		-0.716689	-0.449700	0.421187	-0.326691	56.906884	-63.837506	11.705808
51750		-0.716669	-0.449700	0.421239	-0.326669	56.914121	-63.842309	11.695543
51751		-0.716639	-0.449719	0.421289	-0.326646	56.925890	-63.847159	11.682583
51752		-0.716607	-0.449724	0.421346	-0.326634	56.933821	-63.853474	11.672929
51753		-0.716574	-0.449742	0.421377	-0.326641	56.941115	-63.858014	11.667528
51754		-0.716539	-0.449729	0.421434	-0.326664	56.941292	-63.866259	11.666978
51755		-0.716514	-0.449717	0.421468	-0.326692	56.939099	-63.872062	11.669862
51756		-0.716470	-0.449689	0.421530	-0.326746	56.933231	-63.882860	11.676651
51757		-0.716451	-0.449662	0.421546	-0.326806	56.922526	-63.888325	11.689738
51758		-0.716424	-0.449626	0.421584	-0.326866	56.911618	-63.896343	11.701813
51759		-0.716401	-0.449626	0.421577	-0.326924	56.905986	-63.899434	11.712884
51760		-0.716374	-0.449627	0.421583	-0.326973	56.902364	-63.903428	11.720896
51761		-0.716352	-0.449641	0.421568	-0.327021	56.900277	-63.905033	11.728970
51762		-0.716347	-0.449627	0.421567	-0.327052	56.893691	-63.906838	11.737002
51763		-0.716350	-0.449631	0.421538	-0.327080	56.889350	-63.905133	11.744767
51764		-0.716364	-0.449607	0.421525	-0.327097	56.880314	-63.904325	11.753291
51765		-0.716385	-0.449619	0.421479	-0.327095	56.879133	-63.898819	11.756370
51766		-0.716386	-0.449616	0.421454	-0.327128	56.872833	-63.897950	11.765757
51767		-0.716388	-0.449649	0.421395	-0.327156	56.873040	-63.893157	11.772415
51768		-0.716387	-0.449665	0.421352	-0.327189	56.869831	-63.890431	11.781045
51769		-0.716385	-0.449700	0.421281	-0.327238	56.867484	-63.885521	11.792604
51770		-0.716392	-0.449717	0.421228	-0.327267	56.863949	-63.881335	11.801406
51771		-0.716406	-0.449730	0.421177	-0.327284	56.860766	-63.876431	11.808451
51772		-0.716448	-0.449705	0.421157	-0.327252	56.855195	-63.871459	11.809109
51773		-0.716516	-0.449680	0.421110	-0.327197	56.849087	-63.861657	11.808710
51774		-0.716609	-0.449639	0.421068	-0.327107	56.842236	-63.849790	11.804131
51775		-0.716686	-0.449646	0.420990	-0.327026	56.843527	-63.835063	11.797839
51776		-0.716747	-0.449675	0.420905	-0.326964	56.847996	-63.820897	11.792241
51777		-0.716772	-0.449769	0.420764	-0.326961	56.858595	-63.805139	11.793380
51778		-0.716765	-0.449872	0.420631	-0.327007	56.867777	-63.793585	11.800935
51779		-0.716762	-0.449985	0.420472	-0.327060	56.876372	-63.779663	11.811371
51780		-0.716774	-0.450053	0.420328	-0.327126	56.873982	-63.767613	11.829149
51781		-0.716815	-0.450091	0.420199	-0.327148	56.868966	-63.754045	11.842412
51782		-0.716873	-0.450078	0.420125	-0.327137	56.859120	-63.743940	11.851327
51783		-0.716947	-0.450072	0.420036	-0.327097	56.852421	-63.730385	11.855569
51784		-0.717037	-0.450045	0.419973	-0.327016	56.846407	-63.716836	11.852947
51785		-0.717127	-0.450051	0.419881	-0.326929	56.846696	-63.699883	11.847203
51786		-0.717196	-0.450072	0.419800	-0.326854	56.850729	-63.685393	11.840007
51787		-0.717238	-0.450137	0.419687	-0.326816	56.859700	-63.670095	11.836183
51788		-0.717274	-0.450203	0.419581	-0.326784	56.868929	-63.656064	11.832612
51789		-0.717291	-0.450300	0.419441	-0.326791	56.879440	-63.641115	11.835091
51790		-0.717302	-0.450357	0.419314	-0.326850	56.876529	-63.630611	11.851351
51791		-0.717306	-0.450427	0.419199	-0.326895	56.879087	-63.620665	11.861886
51792		-0.717335	-0.450437	0.419100	-0.326944	56.867759	-63.612109	11.880606
51793		-0.717375	-0.450443	0.419001	-0.326974	56.856916	-63.602148	11.896617
51794		-0.717412	-0.450424	0.418938	-0.327001	56.843332	-63.595943	11.912017
51795		-0.717449	-0.450430	0.418852	-0.327020	56.834948	-63.586898	11.924449
51796		-0.717491	-0.450427	0.418766	-0.327043	56.823779	-63.577820	11.939133
51797		-0.717525	-0.450467	0.418663	-0.327045	56.823751	-63.566091	11.945186
51798		-0.717544	-0.450490	0.418597	-0.327057	56.822216	-63.559171	11.951360
51799		-0.717558	-0.450554	0.418493	-0.327070	56.827396	-63.548553	11.955705
51800		-0.717570	-0.450605	0.418418	-0.327071	56.832992	-63.540235	11.956644
51801		-0.717579	-0.450665	0.418322	-0.327090	56.837329	-63.530855	11.961804
51802		-0.717598	-0.450693	0.418254	-0.327096	56.837294	-63.523448	11.966534
51803		-0.717617	-0.450733	0.418173	-0.327104	56.838793	-63.514674	11.971141
51804		-0.717653	-0.450741	0.418105	-0.327100	56.834763	-63.506426	11.977047
51805		-0.717668	-0.450768	0.418046	-0.327107	56.835183	-63.500049	11.981061
51806		-0.717695	-0.450790	0.417972	-0.327111	56.833153	-63.491656	11.987010
51807		-0.717698	-0.450860	0.417888	-0.327115	56.842594	-63.482955	11.986471
51808		-0.717692	-0.450940	0.417789	-0.327144	56.850935	-63.474140	11.990553
51809		-0.717666	-0.451050	0.417672	-0.327199	56.862709	-63.465352	11.996792
51810		-0.717627	-0.451152	0.417588	-0.327252	56.876087	-63.460315	11.999933
51811		-0.717589	-0.451255	0.417499	-0.327308	56.888602	-63.454921	12.004252
51812		-0.717552	-0.451333	0.417457	-0.327334	56.902235	-63.452883	12.001434
51813		-0.717565	-0.451374	0.417402	-0.327320	56.908584	-63.445949	11.998955
51814		-0.717566	-0.451407	0.417399	-0.327275	56.920693	-63.443140	11.986161
51815		-0.717585	-0.451453	0.417388	-0.327185	56.939075	-63.436521	11.964377
51816		-0.717596	-0.451498	0.417402	-0.327079	56.961210	-63.431902	11.936893
51817		-0.717593	-0.451562	0.417410	-0.326986	56.986421	-63.427741	11.909401
51818		-0.717568	-0.451643	0.417437	-0.326896	57.017321	-63.426240	11.877808
51819		-0.717515	-0.451758	0.417451	-0.326835	57.053371	-63.425798	11.847330
51820		-0.717460	-0.451848	0.417468	-0.326810	57.080071	-63.427700	11.826821
51821		-0.717381	-0.451960	0.417506	-0.326780	57.114866	-63.432034	11.799612
51822		-0.717314	-0.452033	0.417569	-0.326745	57.142801	-63.438598	11.774472
51823		-0.717271	-0.452095	0.417596	-0.326719	57.163360	-63.441119	11.757200
51824		-0.717232	-0.452142	0.417667	-0.326650	57.188247	-63.445848	11.729209
51825		-0.717195	-0.452227	0.417715	-0.326551	57.223221	-63.446529	11.692807
51826		-0.717172	-0.452322	0.417773	-0.326397	57.266395	-63.444708	11.643948
51827		-0.717133	-0.452468	0.417820	-0.326220	57.323437	-63.440907	11.584363
51828		-0.717080	-0.452627	0.417897	-0.326017	57.389153	-63.439069	11.514543
51829		-0.717022	-0.452825	0.417959	-0.325791	57.465165	-63.434535	11.436402
51830		-0.716958	-0.453022	0.418024	-0.325572	57.540947	-63.430829	11.359055
51831		-0.716899	-0.453214	0.418107	-0.325331	57.618601	-63.427557	11.276906
51832		-0.716854	-0.453345	0.418228	-0.325092	57.684643	-63.428146	11.199869
51833		-0.716819	-0.453458	0.418343	-0.324863	57.744619	-63.428361	11.128104
51834		-0.716810	-0.453516	0.418492	-0.324609	57.796049	-63.430090	11.056658
51835		-0.716819	-0.453555	0.418644	-0.324340	57.844424	-63.430829	10.984947
51836		-0.716842	-0.453581	0.418792	-0.324061	57.889694	-63.430323	10.914187
51837		-0.716875	-0.453623	0.418921	-0.323760	57.939178	-63.426218	10.839369
51838		-0.716922	-0.453673	0.419031	-0.323446	57.989811	-63.418863	10.763204
51839		-0.716933	-0.453788	0.419108	-0.323161	58.051146	-63.410555	10.686062
51840		-0.716940	-0.453920	0.419160	-0.322891	58.112774	-63.400615	10.612130
51841		-0.716943	-0.454076	0.419168	-0.322655	58.173576	-63.387806	10.545323
51842		-0.716938	-0.454217	0.419188	-0.322440	58.229448	-63.377715	10.483615
51843		-0.716962	-0.454340	0.419179	-0.322226	58.277867	-63.363787	10.428250
51844		-0.716992	-0.454422	0.419190	-0.322029	58.316597	-63.352937	10.379721
51845		-0.717064	-0.454452	0.419194	-0.321822	58.341775	-63.339690	10.338807
51846		-0.717154	-0.454446	0.419208	-0.321610	58.359493	-63.327012	10.301208
51847		-0.717270	-0.454436	0.419192	-0.321388	58.373748	-63.309760	10.266233
51848		-0.717384	-0.454419	0.419185	-0.321167	58.387096	-63.293667	10.231508
51849		-0.717476	-0.454452	0.419128	-0.320989	58.404397	-63.275087	10.202626
51850		-0.717543	-0.454508	0.419062	-0.320846	58.423733	-63.258240	10.177307
51851		-0.717585	-0.454628	0.418928	-0.320756	58.447749	-63.237715	10.159599
51852		-0.717621	-0.454710	0.418843	-0.320671	58.466817	-63.222911	10.142660
51853		-0.717662	-0.454792	0.418734	-0.320605	58.481947	-63.206396	10.131819
51854		-0.717733	-0.454823	0.418639	-0.320525	58.486641	-63.189923	10.124868
51855		-0.717790	-0.454852	0.418580	-0.320434	58.495243	-63.177050	10.112090
51856		-0.717870	-0.454816	0.418563	-0.320328	58.493117	-63.167257	10.101436
51857		-0.717950	-0.454780	0.418542	-0.320228	58.490129	-63.157415	10.092371
51858		-0.718021	-0.454740	0.418531	-0.320139	58.486311	-63.149495	10.084492
51859		-0.718074	-0.454707	0.418519	-0.320083	58.481208	-63.143840	10.081543
51860		-0.718113	-0.454680	0.418512	-0.320043	58.476993	-63.139856	10.079648
51861		-0.718138	-0.454678	0.418480	-0.320032	58.474070	-63.135273	10.081980
51862		-0.718132	-0.454670	0.418482	-0.320054	58.470443	-63.136898	10.086752
51863		-0.718138	-0.454670	0.418459	-0.320069	58.466739	-63.135162	10.092286
51864		-0.718131	-0.454668	0.418455	-0.320095	58.463739	-63.136315	10.097536
51865		-0.718120	-0.454684	0.418431	-0.320127	58.462630	-63.135911	10.103456
51866		-0.718106	-0.454677	0.418442	-0.320154	58.459650	-63.138971	10.108009
51867		-0.718089	-0.454663	0.418449	-0.320203	58.452911	-63.143015	10.117676
51868		-0.718061	-0.454629	0.418492	-0.320258	58.444233	-63.151395	10.127155
51869		-0.717997	-0.454639	0.418528	-0.320341	58.443611	-63.161476	10.135488
51870		-0.717942	-0.454622	0.418563	-0.320443	58.434382	-63.172435	10.151385
51871		-0.717887	-0.454607	0.418582	-0.320561	58.422834	-63.182532	10.171793
51872		-0.717835	-0.454568	0.418641	-0.320657	58.411109	-63.195535	10.187085
51873		-0.717785	-0.454531	0.418688	-0.320760	58.397874	-63.207671	10.205019
51874		-0.717744	-0.454482	0.418739	-0.320854	58.382913	-63.219506	10.222547
51875		-0.717704	-0.454451	0.418764	-0.320955	58.369285	-63.228974	10.241673
51876		-0.717659	-0.454434	0.418779	-0.321059	58.358066	-63.237665	10.260400
51877		-0.717591	-0.454455	0.418788	-0.321169	58.355089	-63.246508	10.275078
51878		-0.717534	-0.454468	0.418796	-0.321269	58.350887	-63.254461	10.289390
51879		-0.717465	-0.454487	0.418780	-0.321418	58.341634	-63.262865	10.314158
51880		-0.717387	-0.454505	0.418777	-0.321568	58.333512	-63.272996	10.337680
51881		-0.717312	-0.454527	0.418761	-0.321727	58.324211	-63.282199	10.363726
51882		-0.717255	-0.454503	0.418765	-0.321882	58.305487	-63.292857	10.393913
51883		-0.717206	-0.454480	0.418777	-0.322007	58.290591	-63.302495	10.417533
51884		-0.717181	-0.454427	0.418783	-0.322130	58.267403	-63.310801	10.446371
51885		-0.717156	-0.454404	0.418774	-0.322231	58.252183	-63.316165	10.468655
51886		-0.717132	-0.454378	0.418789	-0.322302	58.240914	-63.322425	10.483400
51887		-0.717113	-0.454386	0.418755	-0.322377	58.233291	-63.323526	10.499233
51888		-0.717081	-0.454402	0.418744	-0.322439	58.231093	-63.326707	10.508806
51889		-0.717054	-0.454441	0.418707	-0.322493	58.232733	-63.326484	10.516604
51890		-0.717035	-0.454444	0.418705	-0.322534	58.229832	-63.329044	10.523539
51891		-0.717020	-0.454445	0.418697	-0.322575	58.225843	-63.330857	10.531400
51892		-0.717030	-0.454404	0.418708	-0.322597	58.214645	-63.333099	10.540324
51893		-0.717039	-0.454364	0.418722	-0.322615	58.204491	-63.335434	10.547936
51894		-0.717041	-0.454311	0.418761	-0.322635	58.193166	-63.340781	10.555049
51895		-0.717036	-0.454279	0.418750	-0.322705	58.177999	-63.343732	10.573595
51896		-0.717003	-0.454284	0.418728	-0.322800	58.169184	-63.347570	10.591823
51897		-0.716951	-0.454336	0.418654	-0.322937	58.163290	-63.348669	10.616654
51898		-0.716896	-0.454403	0.418577	-0.323065	58.161738	-63.349108	10.637741
51899		-0.716856	-0.454482	0.418485	-0.323164	58.164070	-63.345867	10.653882
51900		-0.716809	-0.454551	0.418424	-0.323248	58.168481	-63.345200	10.665170
51901		-0.716774	-0.454619	0.418377	-0.323291	58.177499	-63.343483	10.667557
51902		-0.716747	-0.454656	0.418363	-0.323316	58.183359	-63.344086	10.667936
51903		-0.716729	-0.454673	0.418366	-0.323327	58.187139	-63.345467	10.666736
51904		-0.716704	-0.454663	0.418404	-0.323350	58.186299	-63.351401	10.667881
51905		-0.716656	-0.454659	0.418446	-0.323408	58.184796	-63.360329	10.673389
51906		-0.716598	-0.454634	0.418523	-0.323471	58.181054	-63.373506	10.678863
51907		-0.716545	-0.454594	0.418602	-0.323542	58.173049	-63.387310	10.687735
51908		-0.716494	-0.454524	0.418701	-0.323626	58.158046	-63.403921	10.701386
51909		-0.716445	-0.454473	0.418807	-0.323670	58.152328	-63.418974	10.703983
51910		-0.716407	-0.454395	0.418932	-0.323702	58.142422	-63.435018	10.706649
51911		-0.716383	-0.454321	0.419051	-0.323705	58.135306	-63.448557	10.704435
51912		-0.716356	-0.454242	0.419193	-0.323691	58.131118	-63.463550	10.696786
51913		-0.716315	-0.454180	0.419332	-0.323688	58.129651	-63.479237	10.689186
51914		-0.716260	-0.454125	0.419475	-0.323701	58.129267	-63.496608	10.682558
51915		-0.716181	-0.454106	0.419593	-0.323749	58.132562	-63.513908	10.679425
51916		-0.716088	-0.454072	0.419746	-0.323804	58.135048	-63.535597	10.675504
51917		-0.716019	-0.454026	0.419867	-0.323865	58.130358	-63.553683	10.678782
51918		-0.715928	-0.453974	0.420027	-0.323931	58.128130	-63.576724	10.678747
51919		-0.715862	-0.453917	0.420175	-0.323965	58.125769	-63.596063	10.675713
51920		-0.715806	-0.453833	0.420354	-0.323976	58.121754	-63.617204	10.668856
51921		-0.715768	-0.453751	0.420534	-0.323940	58.122473	-63.635310	10.653459
51922		-0.715754	-0.453638	0.420726	-0.323881	58.118427	-63.652809	10.637284
51923		-0.715740	-0.453545	0.420917	-0.323793	58.121830	-63.668613	10.613177
51924		-0.715718	-0.453452	0.421106	-0.323727	58.123159	-63.685551	10.593001
51925		-0.715691	-0.453373	0.421283	-0.323666	58.126691	-63.701801	10.572872
51926		-0.715640	-0.453309	0.421471	-0.323624	58.133307	-63.720738	10.552571
51927		-0.715579	-0.453261	0.421617	-0.323637	58.135083	-63.738493	10.544364
51928		-0.715526	-0.453201	0.421773	-0.323635	58.135995	-63.756370	10.534309
51929		-0.715475	-0.453143	0.421899	-0.323664	58.132024	-63.772781	10.532821
51930		-0.715446	-0.453066	0.422037	-0.323656	58.127117	-63.787782	10.526691
51931		-0.715424	-0.453018	0.422140	-0.323639	58.126976	-63.798329	10.518646
51932		-0.715409	-0.452950	0.422270	-0.323595	58.127056	-63.810157	10.505424
51933		-0.715421	-0.452887	0.422371	-0.323526	58.127145	-63.816706	10.491001
51934		-0.715416	-0.452861	0.422471	-0.323442	58.138128	-63.822744	10.467989
51935		-0.715415	-0.452850	0.422566	-0.323336	58.154400	-63.826913	10.439309
51936		-0.715420	-0.452823	0.422665	-0.323234	58.166705	-63.831578	10.413225
51937		-0.715406	-0.452840	0.422739	-0.323145	58.186555	-63.834673	10.385618
51938		-0.715382	-0.452845	0.422826	-0.323076	58.202925	-63.840574	10.361847
51939		-0.715356	-0.452874	0.422880	-0.323022	58.220934	-63.843924	10.340912
51940		-0.715325	-0.452880	0.422942	-0.323003	58.230640	-63.850125	10.328803
51941		-0.715275	-0.452907	0.423012	-0.322982	58.247004	-63.857564	10.311920
51942		-0.715245	-0.452906	0.423074	-0.322968	58.254453	-63.864123	10.301921
51943		-0.715224	-0.452921	0.423142	-0.322906	58.270995	-63.868359	10.279941
51944		-0.715218	-0.452914	0.423221	-0.322825	58.284411	-63.872214	10.257099
51945		-0.715222	-0.452905	0.423302	-0.322722	58.299595	-63.874937	10.230276
51946		-0.715218	-0.452909	0.423399	-0.322599	58.321443	-63.878289	10.195778
51947		-0.715202	-0.452938	0.423471	-0.322498	58.345415	-63.880558	10.164233
51948		-0.715170	-0.452959	0.423557	-0.322427	58.365995	-63.886403	10.137703
51949		-0.715132	-0.452994	0.423631	-0.322365	58.388505	-63.891599	10.111663
51950		-0.715080	-0.452994	0.423740	-0.322337	58.402653	-63.902871	10.092949
51951		-0.715043	-0.452994	0.423832	-0.322299	58.415552	-63.911361	10.074893
51952		-0.715005	-0.452971	0.423935	-0.322279	58.422499	-63.922177	10.061884
51953		-0.714969	-0.452953	0.424022	-0.322270	58.428040	-63.931828	10.052095
51954		-0.714935	-0.452914	0.424122	-0.322269	58.428758	-63.943275	10.045674
51955		-0.714910	-0.452891	0.424189	-0.322269	58.429851	-63.951059	10.040943
51956		-0.714870	-0.452852	0.424308	-0.322256	58.433862	-63.963992	10.029690
51957		-0.714815	-0.452847	0.424396	-0.322270	58.440678	-63.975511	10.021967
51958		-0.714751	-0.452811	0.424518	-0.322301	58.442016	-63.991880	10.017588
51959		-0.714698	-0.452765	0.424636	-0.322327	58.440399	-64.007328	10.014686
51960		-0.714663	-0.452672	0.424788	-0.322336	58.431894	-64.025014	10.012021
51961		-0.714618	-0.452577	0.424937	-0.322371	58.420487	-64.044126	10.014421
51962		-0.714580	-0.452464	0.425103	-0.322397	58.406683	-64.064336	10.016223
51963		-0.714542	-0.452359	0.425240	-0.322446	58.389993	-64.082829	10.024494
51964		-0.714515	-0.452225	0.425402	-0.322480	58.369657	-64.102875	10.031548
51965		-0.714472	-0.452156	0.425510	-0.322533	58.358658	-64.118510	10.038446
51966		-0.714447	-0.452069	0.425615	-0.322569	58.344452	-64.132471	10.045422
51967		-0.714407	-0.452018	0.425687	-0.322635	58.333145	-64.145071	10.056272
51968		-0.714379	-0.451959	0.425763	-0.322681	58.321845	-64.156502	10.064436
51969		-0.714349	-0.451917	0.425813	-0.322737	58.311505	-64.165892	10.074746
51970		-0.714319	-0.451856	0.425896	-0.322780	58.300818	-64.178013	10.081715
51971		-0.714303	-0.451786	0.425968	-0.322820	58.286893	-64.188479	10.090970
51972		-0.714285	-0.451705	0.426051	-0.322863	58.271005	-64.200286	10.101314
51973		-0.714260	-0.451659	0.426108	-0.322908	58.261271	-64.209588	10.109413
51974		-0.714238	-0.451606	0.426161	-0.322960	58.248630	-64.218913	10.120546
51975		-0.714214	-0.451566	0.426198	-0.323019	58.237059	-64.226872	10.132843
51976		-0.714189	-0.451531	0.426244	-0.323063	58.229025	-64.234879	10.140496
51977		-0.714163	-0.451529	0.426270	-0.323088	58.229184	-64.239723	10.141956
51978		-0.714149	-0.451509	0.426313	-0.323092	58.228247	-64.244950	10.140412
51979		-0.714142	-0.451495	0.426339	-0.323094	58.227168	-64.247929	10.139771
51980		-0.714178	-0.451437	0.426367	-0.323056	58.218487	-64.248031	10.138837
51981		-0.714179	-0.451410	0.426400	-0.323050	58.215326	-64.251191	10.138148
51982		-0.714191	-0.451366	0.426442	-0.323028	58.210398	-64.254167	10.135944
51983		-0.714184	-0.451336	0.426470	-0.323048	58.203816	-64.258478	10.140988
51984		-0.714176	-0.451307	0.426499	-0.323068	58.197737	-64.263065	10.145468
51985		-0.714163	-0.451287	0.426507	-0.323115	58.189273	-64.266831	10.155984
51986		-0.714149	-0.451253	0.426538	-0.323152	58.180374	-64.272621	10.164250
51987		-0.714148	-0.451215	0.426559	-0.323178	58.170464	-64.276482	10.172474
51988		-0.714154	-0.451156	0.426616	-0.323173	58.161670	-64.282195	10.173877
51989		-0.714192	-0.451073	0.426651	-0.323158	58.145017	-64.284286	10.180364
51990		-0.714222	-0.450990	0.426717	-0.323120	58.133735	-64.288492	10.178916
51991		-0.714237	-0.450931	0.426758	-0.323116	58.123020	-64.292364	10.182600
51992		-0.714240	-0.450884	0.426802	-0.323117	58.115514	-64.297105	10.184804
51993		-0.714227	-0.450864	0.426810	-0.323163	58.107028	-64.300865	10.195341
51994		-0.714189	-0.450844	0.426835	-0.323243	58.097412	-64.309050	10.209658
51995		-0.714149	-0.450837	0.426844	-0.323331	58.088696	-64.316003	10.225351
51996		-0.714125	-0.450771	0.426912	-0.323383	58.074370	-64.326903	10.236674
51997		-0.714137	-0.450663	0.426992	-0.323403	58.052858	-64.336470	10.247886
51998		-0.714159	-0.450523	0.427109	-0.323394	58.029525	-64.348029	10.254414
51999		-0.714210	-0.450381	0.427221	-0.323331	58.010016	-64.355319	10.252256
52000		-0.714263	-0.450222	0.427365	-0.323245	57.991657	-64.364661	10.244614
52001		-0.714304	-0.450117	0.427460	-0.323175	57.980513	-64.369999	10.237297
52002		-0.714325	-0.450023	0.427559	-0.323127	57.971022	-64.377508	10.231520
52003		-0.714324	-0.449962	0.427648	-0.323098	57.967204	-64.385330	10.224981
52004		-0.714316	-0.449891	0.427716	-0.323127	57.953147	-64.394563	10.233378
52005		-0.714304	-0.449838	0.427772	-0.323151	57.943387	-64.402258	10.239056
52006		-0.714288	-0.449751	0.427853	-0.323201	57.924843	-64.414276	10.252077
52007		-0.714287	-0.449652	0.427933	-0.323235	57.904528	-64.424905	10.264214
52008		-0.714295	-0.449520	0.428031	-0.323269	57.877509	-64.437304	10.279604
52009		-0.714314	-0.449399	0.428119	-0.323282	57.853797	-64.447047	10.290903
52010		-0.714325	-0.449284	0.428215	-0.323289	57.833490	-64.457553	10.298779
52011		-0.714326	-0.449203	0.428292	-0.323296	57.820090	-64.466326	10.303468
52012		-0.714332	-0.449124	0.428360	-0.323305	57.805719	-64.473949	10.309542
52013		-0.714319	-0.449065	0.428436	-0.323313	57.797740	-64.482995	10.311090
52014		-0.714325	-0.448971	0.428504	-0.323340	57.777960	-64.491767	10.322842
52015		-0.714308	-0.448916	0.428574	-0.323361	57.769312	-64.500892	10.326665
52016		-0.714301	-0.448848	0.428641	-0.323383	57.756655	-64.509489	10.333332
52017		-0.714289	-0.448791	0.428691	-0.323423	57.743404	-64.517518	10.343590
52018		-0.714273	-0.448726	0.428754	-0.323464	57.729447	-64.526986	10.353721
52019		-0.714247	-0.448674	0.428805	-0.323524	57.716039	-64.536605	10.366599
52020		-0.714226	-0.448605	0.428860	-0.323594	57.697471	-64.547059	10.383684
52021		-0.714192	-0.448568	0.428904	-0.323663	57.686137	-64.556495	10.396617
52022		-0.714161	-0.448487	0.428983	-0.323738	57.666664	-64.570060	10.413581
52023		-0.714129	-0.448429	0.429042	-0.323812	57.650965	-64.581448	10.429086
52024		-0.714102	-0.448340	0.429139	-0.323867	57.633202	-64.595630	10.441229
52025		-0.714068	-0.448275	0.429219	-0.323926	57.619318	-64.608376	10.452567
52026		-0.714015	-0.448209	0.429328	-0.323989	57.608054	-64.625058	10.461059
52027		-0.713964	-0.448159	0.429407	-0.324065	57.596756	-64.639136	10.472798
52028		-0.713899	-0.448087	0.429527	-0.324149	57.582899	-64.658375	10.484995
52029		-0.713842	-0.448030	0.429614	-0.324238	57.569313	-64.674225	10.499360
52030		-0.713759	-0.447965	0.429741	-0.324343	57.556165	-64.695777	10.513162
52031		-0.713695	-0.447887	0.429844	-0.324455	57.536663	-64.714900	10.533240
52032		-0.713628	-0.447792	0.429972	-0.324563	57.515546	-64.736357	10.552361
52033		-0.713542	-0.447725	0.430083	-0.324697	57.497754	-64.758057	10.573700
52034		-0.713452	-0.447657	0.430204	-0.324829	57.480744	-64.780757	10.593592
52035		-0.713356	-0.447616	0.430307	-0.324959	57.469211	-64.801493	10.610970
52036		-0.713264	-0.447547	0.430434	-0.325089	57.452782	-64.824824	10.629898
52037		-0.713162	-0.447506	0.430557	-0.325207	57.444411	-64.847195	10.642646
52038		-0.713074	-0.447437	0.430697	-0.325307	57.432203	-64.870091	10.654558
52039		-0.712974	-0.447399	0.430819	-0.325418	57.425234	-64.891938	10.665553
52040		-0.712874	-0.447342	0.430966	-0.325522	57.416336	-64.916088	10.675408
52041		-0.712774	-0.447285	0.431110	-0.325629	57.406963	-64.940083	10.686295
52042		-0.712686	-0.447197	0.431264	-0.325737	57.390504	-64.964947	10.700941
52043		-0.712585	-0.447154	0.431380	-0.325864	57.379971	-64.987126	10.716591
52044		-0.712484	-0.447095	0.431513	-0.325990	57.367122	-65.010966	10.732651
52045		-0.712362	-0.447086	0.431614	-0.326135	57.362130	-65.033058	10.747895
52046		-0.712218	-0.447092	0.431725	-0.326294	57.361233	-65.057499	10.761660
52047		-0.712079	-0.447116	0.431805	-0.326458	57.361206	-65.078785	10.777446
52048		-0.711951	-0.447113	0.431909	-0.326604	57.358023	-65.101340	10.791519
52049		-0.711821	-0.447118	0.432009	-0.326748	57.357141	-65.123457	10.804062
52050		-0.711722	-0.447082	0.432138	-0.326842	57.352927	-65.145038	10.810833
52051		-0.711644	-0.447030	0.432272	-0.326908	57.347360	-65.165160	10.814776
52052		-0.711596	-0.446932	0.432442	-0.326920	57.338651	-65.185316	10.811870
52053		-0.711562	-0.446843	0.432588	-0.326923	57.330702	-65.202092	10.808660
52054		-0.711537	-0.446736	0.432776	-0.326874	57.327462	-65.220182	10.793681
52055		-0.711521	-0.446652	0.432926	-0.326824	57.326188	-65.233995	10.779541
52056		-0.711522	-0.446550	0.433105	-0.326725	57.327918	-65.247662	10.755578
52057		-0.711531	-0.446468	0.433259	-0.326613	57.333448	-65.257717	10.729147
52058		-0.711567	-0.446355	0.433429	-0.326463	57.336029	-65.266643	10.698980
52059		-0.711629	-0.446232	0.433588	-0.326286	57.337250	-65.272363	10.666824
52060		-0.711719	-0.446083	0.433743	-0.326088	57.333077	-65.275640	10.635813
52061		-0.711823	-0.445959	0.433846	-0.325892	57.329793	-65.273207	10.607439
52062		-0.711893	-0.445865	0.433942	-0.325741	57.329293	-65.273376	10.583428
52063		-0.711970	-0.445791	0.433972	-0.325633	57.322844	-65.268585	10.572320
52064		-0.712063	-0.445732	0.433962	-0.325523	57.316183	-65.259112	10.563532
52065		-0.712141	-0.445711	0.433896	-0.325472	57.307903	-65.247152	10.566287
52066		-0.712212	-0.445711	0.433810	-0.325429	57.302521	-65.233780	10.569391
52067		-0.712286	-0.445740	0.433681	-0.325401	57.298475	-65.216415	10.576150
52068		-0.712369	-0.445749	0.433566	-0.325360	57.292001	-65.199700	10.581950
52069		-0.712466	-0.445767	0.433447	-0.325281	57.291037	-65.180081	10.579605
52070		-0.712568	-0.445770	0.433349	-0.325182	57.290331	-65.161458	10.573596
52071		-0.712674	-0.445769	0.433251	-0.325082	57.288543	-65.142674	10.567981
52072		-0.712771	-0.445770	0.433162	-0.324987	57.287822	-65.125384	10.561894
52073		-0.712842	-0.445795	0.433059	-0.324936	57.287755	-65.109594	10.561614
52074		-0.712902	-0.445817	0.432965	-0.324898	57.286964	-65.095826	10.562959
52075		-0.712939	-0.445866	0.432849	-0.324904	57.286572	-65.082832	10.570784
52076		-0.712966	-0.445902	0.432751	-0.324926	57.283379	-65.072832	10.581155
52077		-0.712981	-0.445957	0.432637	-0.324971	57.281249	-65.062743	10.594773
52078		-0.712987	-0.445993	0.432567	-0.325001	57.280315	-65.056664	10.603210
52079		-0.713000	-0.446014	0.432509	-0.325022	57.277533	-65.051272	10.611007
52080		-0.713011	-0.446011	0.432500	-0.325013	57.276770	-65.049613	10.610855
52081		-0.713007	-0.446003	0.432525	-0.324999	57.278517	-65.051551	10.606686
52082		-0.713010	-0.445959	0.432591	-0.324964	57.277508	-65.056659	10.599032
52083		-0.712996	-0.445918	0.432672	-0.324945	57.277043	-65.064610	10.592188
52084		-0.712963	-0.445873	0.432801	-0.324906	57.283168	-65.077191	10.575867
52085		-0.712922	-0.445841	0.432903	-0.324905	57.285662	-65.089165	10.568296
52086		-0.712858	-0.445787	0.433055	-0.324917	57.287060	-65.107695	10.559917
52087		-0.712783	-0.445771	0.433184	-0.324930	57.295936	-65.124160	10.548348
52088		-0.712721	-0.445723	0.433343	-0.324921	57.301222	-65.142306	10.534642
52089		-0.712666	-0.445676	0.433493	-0.324908	57.306584	-65.159067	10.520740
52090		-0.712616	-0.445616	0.433651	-0.324887	57.310187	-65.176157	10.506551
52091		-0.712539	-0.445589	0.433795	-0.324901	57.317496	-65.194323	10.495295
52092		-0.712474	-0.445523	0.433962	-0.324911	57.317637	-65.214536	10.486555
52093		-0.712387	-0.445486	0.434095	-0.324976	57.316341	-65.234675	10.487657
52094		-0.712317	-0.445417	0.434232	-0.325040	57.307090	-65.254774	10.493486
52095		-0.712220	-0.445375	0.434360	-0.325139	57.300674	-65.276559	10.502381
52096		-0.712134	-0.445320	0.434483	-0.325239	57.290133	-65.297576	10.514326
52097		-0.712043	-0.445278	0.434591	-0.325350	57.280403	-65.317720	10.528004
52098		-0.711966	-0.445216	0.434708	-0.325448	57.267547	-65.337860	10.541441
52099		-0.711896	-0.445164	0.434815	-0.325528	57.258098	-65.355624	10.551142
52100		-0.711835	-0.445106	0.434911	-0.325614	57.244913	-65.372327	10.564592
52101		-0.711732	-0.445102	0.434990	-0.325738	57.241001	-65.390405	10.577962
52102		-0.711647	-0.445087	0.435063	-0.325848	57.234542	-65.406575	10.591433
52103		-0.711531	-0.445104	0.435109	-0.326014	57.228611	-65.423690	10.613247
52104		-0.711431	-0.445094	0.435158	-0.326182	57.215151	-65.440888	10.639892
52105		-0.711327	-0.445097	0.435197	-0.326351	57.204350	-65.457262	10.665551
52106		-0.711237	-0.445076	0.435259	-0.326494	57.191828	-65.474203	10.687753
52107		-0.711161	-0.445063	0.435317	-0.326600	57.184855	-65.488257	10.701956
52108		-0.711128	-0.445002	0.435404	-0.326640	57.174270	-65.500753	10.708683
52109		-0.711088	-0.444976	0.435485	-0.326655	57.174857	-65.511373	10.705382
52110		-0.711043	-0.444965	0.435572	-0.326651	57.182196	-65.521595	10.695054
52111		-0.710997	-0.444956	0.435646	-0.326665	57.186413	-65.531510	10.689890
52112		-0.710951	-0.444957	0.435725	-0.326659	57.196234	-65.540745	10.678153
52113		-0.710900	-0.444972	0.435777	-0.326679	57.204242	-65.548778	10.672580
52114		-0.710844	-0.444967	0.435840	-0.326723	57.206054	-65.559426	10.673096
52115		-0.710791	-0.444964	0.435895	-0.326770	57.206735	-65.569281	10.675400
52116		-0.710759	-0.444902	0.435981	-0.326809	57.195974	-65.581653	10.682065
52117		-0.710757	-0.444837	0.436038	-0.326827	57.182908	-65.588800	10.689344
52118		-0.710789	-0.444731	0.436088	-0.326833	57.159132	-65.593882	10.702400
52119		-0.710808	-0.444675	0.436122	-0.326823	57.148826	-65.596494	10.705720
52120		-0.710837	-0.444643	0.436134	-0.326787	57.144738	-65.595086	10.703258
52121		-0.710855	-0.444661	0.436108	-0.326758	57.149631	-65.590143	10.697970
52122		-0.710872	-0.444682	0.436075	-0.326739	57.153246	-65.585128	10.695196
52123		-0.710878	-0.444721	0.436016	-0.326751	57.156113	-65.579215	10.698354
52124		-0.710885	-0.444746	0.435972	-0.326760	57.157017	-65.574831	10.701483
52125		-0.710899	-0.444736	0.435936	-0.326790	57.147384	-65.572348	10.713433
52126		-0.710934	-0.444674	0.435938	-0.326797	57.130244	-65.572061	10.725189
52127		-0.711003	-0.444548	0.435936	-0.326820	57.093498	-65.571536	10.751758
52128		-0.711089	-0.444400	0.435949	-0.326818	57.054719	-65.570725	10.775574
52129		-0.711163	-0.444278	0.435940	-0.326835	57.018867	-65.568942	10.801263
52130		-0.711241	-0.444164	0.435936	-0.326826	56.988257	-65.566110	10.819980
52131		-0.711312	-0.444094	0.435889	-0.326829	56.963728	-65.559448	10.838789
52132		-0.711377	-0.444044	0.435815	-0.326852	56.939707	-65.551205	10.861328
52133		-0.711414	-0.444053	0.435717	-0.326891	56.927560	-65.541930	10.879628
52134		-0.711446	-0.444056	0.435621	-0.326944	56.912523	-65.533683	10.901453
52135		-0.711489	-0.444023	0.435540	-0.327005	56.888654	-65.527364	10.929014
52136		-0.711567	-0.443936	0.435495	-0.327014	56.858944	-65.521062	10.951787
52137		-0.711665	-0.443822	0.435450	-0.327014	56.823297	-65.513783	10.977167
52138		-0.711771	-0.443670	0.435455	-0.326984	56.785338	-65.510069	10.997494
52139		-0.711869	-0.443545	0.435444	-0.326956	56.752953	-65.504828	11.015304
52140		-0.711982	-0.443393	0.435448	-0.326909	56.716923	-65.499857	11.032241
52141		-0.712036	-0.443317	0.435442	-0.326903	56.696078	-65.497519	11.045160
52142		-0.712110	-0.443244	0.435402	-0.326893	56.672856	-65.490800	11.061132
52143		-0.712163	-0.443185	0.435349	-0.326928	56.647486	-65.485740	11.084857
52144		-0.712218	-0.443135	0.435294	-0.326948	56.626165	-65.479635	11.104082
52145		-0.712265	-0.443102	0.435226	-0.326981	56.606719	-65.472902	11.124538
52146		-0.712314	-0.443074	0.435157	-0.327005	56.589099	-65.465597	11.142766
52147		-0.712341	-0.443066	0.435088	-0.327050	56.575126	-65.459953	11.161258
52148		-0.712370	-0.443054	0.435045	-0.327060	56.566151	-65.455162	11.170782
52149		-0.712380	-0.443048	0.435003	-0.327102	56.555902	-65.452698	11.184953
52150		-0.712410	-0.443012	0.435002	-0.327086	56.547623	-65.450924	11.188319
52151		-0.712453	-0.442957	0.435014	-0.327052	56.537292	-65.449237	11.189944
52152		-0.712509	-0.442864	0.435067	-0.326985	56.524590	-65.449893	11.186639
52153		-0.712563	-0.442788	0.435113	-0.326909	56.516233	-65.449205	11.179870
52154		-0.712626	-0.442704	0.435166	-0.326816	56.508268	-65.448193	11.170354
52155		-0.712652	-0.442668	0.435209	-0.326751	56.509580	-65.448633	11.158824
52156		-0.712668	-0.442659	0.435239	-0.326688	56.516530	-65.447885	11.144756
52157		-0.712644	-0.442701	0.435253	-0.326664	56.531838	-65.448695	11.131225
52158		-0.712624	-0.442749	0.435253	-0.326644	56.546723	-65.448099	11.119158
52159		-0.712585	-0.442797	0.435268	-0.326641	56.561769	-65.450484	11.108358
52160		-0.712573	-0.442792	0.435312	-0.326616	56.567582	-65.454160	11.099005
52161		-0.712565	-0.442790	0.435336	-0.326606	56.570692	-65.456391	11.094348
52162		-0.712568	-0.442771	0.435382	-0.326562	56.574757	-65.458850	11.083665
52163		-0.712564	-0.442784	0.435391	-0.326543	56.581042	-65.458868	11.076732
52164		-0.712543	-0.442798	0.435421	-0.326528	56.589678	-65.461849	11.067574
52165		-0.712505	-0.442857	0.435428	-0.326523	56.607002	-65.463260	11.055385
52166		-0.712460	-0.442925	0.435443	-0.326508	56.628304	-65.465094	11.039118
52167		-0.712407	-0.443018	0.435448	-0.326492	56.655570	-65.466045	11.019426
52168		-0.712384	-0.443072	0.435474	-0.326434	56.678629	-65.466165	10.995898
52169		-0.712373	-0.443106	0.435513	-0.326358	56.699695	-65.466468	10.970724
52170		-0.712359	-0.443131	0.435567	-0.326283	56.719575	-65.468443	10.945470
52171		-0.712325	-0.443182	0.435601	-0.326243	56.741033	-65.470653	10.924853
52172		-0.712287	-0.443220	0.435654	-0.326202	56.761212	-65.475124	10.903729
52173		-0.712249	-0.443269	0.435669	-0.326200	56.776292	-65.477492	10.892900
52174		-0.712181	-0.443344	0.435678	-0.326235	56.794227	-65.482092	10.885414
52175		-0.712112	-0.443434	0.435671	-0.326273	56.814105	-65.485219	10.877749
52176		-0.712055	-0.443501	0.435686	-0.326286	56.832817	-65.488920	10.866490
52177		-0.712012	-0.443553	0.435720	-0.326264	56.852685	-65.492428	10.849058
52178		-0.711988	-0.443574	0.435776	-0.326213	56.869450	-65.496212	10.828821
52179		-0.711966	-0.443602	0.435837	-0.326141	56.890853	-65.499187	10.802570
52180		-0.711968	-0.443586	0.435926	-0.326039	56.906310	-65.503042	10.774834
52181		-0.711948	-0.443618	0.435986	-0.325959	56.929217	-65.505491	10.746724
52182		-0.711912	-0.443630	0.436062	-0.325919	56.945129	-65.512440	10.727071
52183		-0.711827	-0.443707	0.436111	-0.325935	56.969979	-65.520567	10.710263
52184		-0.711753	-0.443737	0.436176	-0.325967	56.982315	-65.531302	10.702623
52185		-0.711695	-0.443740	0.436231	-0.326018	56.984290	-65.541419	10.704523
52186		-0.711650	-0.443704	0.436307	-0.326064	56.978682	-65.553376	10.709324
52187		-0.711621	-0.443668	0.436388	-0.326065	56.977954	-65.562941	10.705244
52188		-0.711618	-0.443593	0.436478	-0.326053	56.968850	-65.572073	10.704364
52189		-0.711620	-0.443548	0.436558	-0.326006	56.970113	-65.577957	10.692999
52190		-0.711621	-0.443483	0.436654	-0.325962	56.967421	-65.585856	10.683711
52191		-0.711595	-0.443481	0.436731	-0.325918	56.979915	-65.592325	10.665670
52192		-0.711604	-0.443456	0.436782	-0.325865	56.983947	-65.594589	10.653495
52193		-0.711659	-0.443380	0.436827	-0.325789	56.975581	-65.593912	10.646737
52194		-0.711767	-0.443198	0.436932	-0.325659	56.950474	-65.595357	10.640621
52195		-0.711929	-0.442902	0.437094	-0.325489	56.904758	-65.599475	10.639216
52196		-0.712184	-0.442425	0.437364	-0.325217	56.831927	-65.607261	10.636271
52197		-0.712589	-0.441683	0.437816	-0.324730	56.728139	-65.619200	10.615835
52198		-0.713063	-0.440820	0.438332	-0.324168	56.606397	-65.632159	10.593819
52199		-0.713491	-0.440031	0.438811	-0.323648	56.496870	-65.644742	10.571340
52200		-0.713845	-0.439379	0.439212	-0.323208	56.407564	-65.655148	10.550640
52201		-0.714082	-0.438942	0.439503	-0.322882	56.353703	-65.662899	10.527620
52202		-0.714186	-0.438729	0.439686	-0.322695	56.334516	-65.669752	10.506052
52203		-0.714181	-0.438719	0.439736	-0.322651	56.341863	-65.672804	10.492890
52204		-0.714078	-0.438853	0.439734	-0.322699	56.373308	-65.677722	10.478816
52205		-0.713940	-0.439060	0.439670	-0.322809	56.411671	-65.680313	10.471646
52206		-0.713827	-0.439238	0.439620	-0.322885	56.446836	-65.681780	10.461443
52207		-0.713771	-0.439351	0.439565	-0.322931	56.466849	-65.679771	10.457548
52208		-0.713753	-0.439376	0.439581	-0.322914	56.477282	-65.680913	10.447694
52209		-0.713772	-0.439351	0.439611	-0.322865	56.478712	-65.680968	10.438915
52210		-0.713813	-0.439278	0.439670	-0.322795	56.472097	-65.682542	10.431059
52211		-0.713845	-0.439227	0.439721	-0.322722	56.471352	-65.683193	10.419506
52212		-0.713851	-0.439210	0.439745	-0.322702	56.471207	-65.684533	10.415652
52213		-0.713831	-0.439234	0.439741	-0.322717	56.475958	-65.685430	10.414679
52214		-0.713800	-0.439254	0.439751	-0.322745	56.479776	-65.688768	10.415163
52215		-0.713761	-0.439286	0.439742	-0.322800	56.482023	-65.691810	10.421113
52216		-0.713736	-0.439294	0.439754	-0.322830	56.482532	-65.695379	10.423873
52217		-0.713721	-0.439297	0.439752	-0.322861	56.480018	-65.697291	10.429485
52218		-0.713719	-0.439290	0.439756	-0.322868	56.478120	-65.698093	10.431318
52219		-0.713716	-0.439294	0.439746	-0.322883	56.476639	-65.697974	10.434671
52220		-0.713719	-0.439289	0.439762	-0.322862	56.479097	-65.698505	10.429602
52221		-0.713729	-0.439287	0.439752	-0.322856	56.477881	-65.696816	10.430225
52222		-0.713720	-0.439320	0.439739	-0.322848	56.486077	-65.695208	10.424734
52223		-0.713705	-0.439362	0.439701	-0.322877	56.490554	-65.693002	10.427608
52224		-0.713681	-0.439417	0.439668	-0.322900	56.499491	-65.691330	10.426707
52225		-0.713651	-0.439487	0.439616	-0.322943	56.508253	-65.688743	10.429527
52226		-0.713625	-0.439552	0.439557	-0.322991	56.514644	-65.685613	10.434800
52227		-0.713593	-0.439632	0.439477	-0.323061	56.520725	-65.681685	10.444225
52228		-0.713549	-0.439729	0.439416	-0.323109	56.535478	-65.678761	10.444361
52229		-0.713503	-0.439842	0.439328	-0.323178	56.549458	-65.674149	10.449047
52230		-0.713423	-0.439969	0.439273	-0.323257	56.570081	-65.674493	10.448831
52231		-0.713340	-0.440139	0.439156	-0.323366	56.592495	-65.669910	10.454786
52232		-0.713224	-0.440308	0.439075	-0.323504	56.615648	-65.671628	10.461899
52233		-0.713094	-0.440490	0.438994	-0.323650	56.641939	-65.674106	10.467974
52234		-0.712982	-0.440621	0.438941	-0.323792	56.657636	-65.679055	10.478607
52235		-0.712881	-0.440715	0.438912	-0.323924	56.667040	-65.685745	10.490810
52236		-0.712808	-0.440750	0.438932	-0.324011	56.670318	-65.694508	10.498422
52237		-0.712728	-0.440797	0.438944	-0.324107	56.675237	-65.703165	10.506430
52238		-0.712665	-0.440813	0.438965	-0.324195	56.673339	-65.711824	10.517485
52239		-0.712593	-0.440860	0.438976	-0.324272	56.679892	-65.719179	10.522270
52240		-0.712506	-0.440912	0.438994	-0.324369	56.686607	-65.728605	10.529011
52241		-0.712411	-0.440986	0.438992	-0.324479	56.695810	-65.736889	10.536975
52242		-0.712303	-0.441063	0.438997	-0.324605	56.704999	-65.747103	10.546532
52243		-0.712181	-0.441155	0.439002	-0.324741	56.717298	-65.758233	10.555263
52244		-0.712069	-0.441225	0.438997	-0.324900	56.720272	-65.769311	10.573545
52245		-0.711950	-0.441297	0.439011	-0.325043	56.727398	-65.781670	10.586047
52246		-0.711833	-0.441348	0.439026	-0.325211	56.726631	-65.795578	10.606685
52247		-0.711722	-0.441410	0.439027	-0.325369	56.728126	-65.807250	10.625390
52248		-0.711618	-0.441466	0.439041	-0.325502	56.731880	-65.818723	10.638730
52249		-0.711506	-0.441538	0.439034	-0.325657	56.735646	-65.829425	10.656052
52250		-0.711412	-0.441595	0.439021	-0.325803	56.735423	-65.838473	10.675282
52251		-0.711297	-0.441689	0.438980	-0.325982	56.738756	-65.846869	10.697855
52252		-0.711168	-0.441798	0.438951	-0.326155	56.748435	-65.856663	10.714877
52253		-0.711029	-0.441918	0.438897	-0.326366	56.754402	-65.866000	10.740658
52254		-0.710901	-0.442019	0.438850	-0.326573	56.756329	-65.875607	10.767987
52255		-0.710762	-0.442153	0.438768	-0.326804	56.761088	-65.883101	10.798558
52256		-0.710603	-0.442317	0.438671	-0.327058	56.769737	-65.890736	10.830459
52257		-0.710446	-0.442503	0.438520	-0.327350	56.774885	-65.894688	10.872405
52258		-0.710286	-0.442714	0.438360	-0.327626	56.787509	-65.896764	10.908102
52259		-0.710131	-0.442965	0.438150	-0.327903	56.805219	-65.893448	10.943557
52260		-0.709969	-0.443270	0.437909	-0.328164	56.835972	-65.885966	10.970288
52261		-0.709804	-0.443639	0.437610	-0.328420	56.878195	-65.872059	10.992623
52262		-0.709647	-0.444053	0.437290	-0.328627	56.935166	-65.852998	11.000331
52263		-0.709472	-0.444515	0.436962	-0.328816	57.006309	-65.832412	10.997283
52264		-0.709302	-0.444985	0.436644	-0.328969	57.084115	-65.810884	10.984851
52265		-0.709136	-0.445449	0.436340	-0.329102	57.163887	-65.789575	10.967860
52266		-0.708991	-0.445847	0.436092	-0.329203	57.235266	-65.772072	10.949009
52267		-0.708853	-0.446192	0.435876	-0.329321	57.293857	-65.758774	10.938657
52268		-0.708737	-0.446458	0.435706	-0.329436	57.336027	-65.749701	10.935929
52269		-0.708635	-0.446660	0.435560	-0.329574	57.361428	-65.744290	10.945320
52270		-0.708542	-0.446816	0.435456	-0.329699	57.380474	-65.742480	10.954770
52271		-0.708451	-0.446954	0.435330	-0.329876	57.386771	-65.741051	10.980114
52272		-0.708322	-0.447104	0.435224	-0.330088	57.395351	-65.744852	11.007386
52273		-0.708167	-0.447287	0.435105	-0.330331	57.408499	-65.749501	11.036132
52274		-0.708023	-0.447449	0.434993	-0.330567	57.417262	-65.754362	11.066554
52275		-0.707869	-0.447619	0.434875	-0.330821	57.426009	-65.759793	11.099550
52276		-0.707723	-0.447752	0.434812	-0.331036	57.434519	-65.768816	11.124568
52277		-0.707608	-0.447860	0.434736	-0.331236	57.436137	-65.774823	11.152957
52278		-0.707527	-0.447894	0.434724	-0.331380	57.430146	-65.783650	11.175527
52279		-0.707445	-0.447926	0.434712	-0.331526	57.423558	-65.792641	11.198747
52280		-0.707368	-0.447941	0.434719	-0.331660	57.415475	-65.802900	11.220233
52281		-0.707265	-0.447990	0.434720	-0.331812	57.414215	-65.814170	11.240039
52282		-0.707164	-0.448045	0.434719	-0.331955	57.415325	-65.824694	11.257177
52283		-0.707062	-0.448117	0.434704	-0.332094	57.420141	-65.833511	11.272337
52284		-0.706954	-0.448191	0.434703	-0.332228	57.427148	-65.843606	11.284671
52285		-0.706849	-0.448252	0.434702	-0.332368	57.430274	-65.854121	11.300265
52286		-0.706766	-0.448303	0.434713	-0.332463	57.436273	-65.862717	11.307603
52287		-0.706675	-0.448350	0.434726	-0.332576	57.439501	-65.872821	11.318994
52288		-0.706583	-0.448394	0.434751	-0.332678	57.444743	-65.883536	11.326799
52289		-0.706486	-0.448449	0.434770	-0.332786	57.451475	-65.894126	11.334845
52290		-0.706395	-0.448480	0.434804	-0.332893	57.453360	-65.906131	11.345116
52291		-0.706304	-0.448516	0.434824	-0.333010	57.454278	-65.917208	11.357929
52292		-0.706220	-0.448538	0.434896	-0.333065	57.463346	-65.930238	11.354770
52293		-0.706165	-0.448545	0.434943	-0.333110	57.466156	-65.939168	11.355882
52294		-0.706133	-0.448523	0.435029	-0.333098	57.470941	-65.948526	11.346197
52295		-0.706114	-0.448519	0.435080	-0.333074	57.478117	-65.953163	11.335645
52296		-0.706083	-0.448548	0.435115	-0.333056	57.491749	-65.956661	11.322546
52297		-0.706030	-0.448632	0.435101	-0.333075	57.511572	-65.957564	11.312904
52298		-0.705958	-0.448745	0.435064	-0.333124	57.533672	-65.958210	11.306995
52299		-0.705872	-0.448884	0.434975	-0.333234	57.551470	-65.957016	11.314419
52300		-0.705782	-0.449002	0.434908	-0.333354	57.564479	-65.958805	11.325059
52301		-0.705709	-0.449108	0.434802	-0.333504	57.567142	-65.957729	11.348231
52302		-0.705626	-0.449208	0.434709	-0.333664	57.568620	-65.958941	11.372738
52303		-0.705563	-0.449295	0.434592	-0.333833	57.562718	-65.957422	11.404526
52304		-0.705500	-0.449399	0.434465	-0.333991	57.561591	-65.954314	11.432492
52305		-0.705422	-0.449540	0.434297	-0.334184	57.562645	-65.949143	11.465745
52306		-0.705322	-0.449737	0.434092	-0.334398	57.572884	-65.941661	11.497989
52307		-0.705180	-0.450012	0.433836	-0.334658	57.594464	-65.932563	11.531611
52308		-0.705020	-0.450315	0.433566	-0.334940	57.619875	-65.923480	11.566266
52309		-0.704846	-0.450631	0.433263	-0.335272	57.640665	-65.914163	11.612180
52310		-0.704655	-0.450921	0.432997	-0.335627	57.655898	-65.910534	11.662419
52311		-0.704470	-0.451179	0.432733	-0.336007	57.660500	-65.908437	11.722410
52312		-0.704303	-0.451357	0.432515	-0.336400	57.646569	-65.911568	11.793386
52313		-0.704146	-0.451477	0.432310	-0.336831	57.614698	-65.917898	11.879926
52314		-0.703997	-0.451534	0.432137	-0.337287	57.566699	-65.928895	11.978015
52315		-0.703835	-0.451593	0.431919	-0.337825	57.505847	-65.939921	12.097420
52316		-0.703680	-0.451662	0.431660	-0.338388	57.440653	-65.947742	12.225206
52317		-0.703451	-0.451811	0.431339	-0.339074	57.378823	-65.957758	12.369881
52318		-0.703204	-0.452022	0.430927	-0.339826	57.317492	-65.962270	12.527792
52319		-0.702915	-0.452309	0.430419	-0.340686	57.256100	-65.963467	12.704928
52320		-0.702587	-0.452656	0.429828	-0.341646	57.192659	-65.962546	12.900754
52321		-0.702214	-0.453064	0.429141	-0.342733	57.123079	-65.959545	13.122157
52322		-0.701815	-0.453504	0.428393	-0.343903	57.047837	-65.955399	13.361196
52323		-0.701383	-0.453964	0.427571	-0.345197	56.958237	-65.950961	13.629360
52324		-0.700941	-0.454432	0.426710	-0.346543	56.862257	-65.945366	13.910405
52325		-0.700457	-0.454945	0.425758	-0.348017	56.756636	-65.938325	14.219145
52326		-0.699970	-0.455502	0.424696	-0.349562	56.645313	-65.923382	14.546776
52327		-0.699389	-0.456204	0.423502	-0.351254	56.546777	-65.905316	14.892198
52328		-0.698737	-0.457046	0.422159	-0.353069	56.460438	-65.880302	15.253775
52329		-0.698002	-0.458054	0.420633	-0.355031	56.388152	-65.846566	15.635260
52330		-0.697157	-0.459253	0.418934	-0.357146	56.337763	-65.806407	16.031759
52331		-0.696201	-0.460633	0.417028	-0.359456	56.299451	-65.758876	16.456821
52332		-0.695137	-0.462163	0.414945	-0.361954	56.269194	-65.706587	16.910623
52333		-0.693914	-0.463891	0.412658	-0.364694	56.252700	-65.651595	17.397972
52334		-0.692580	-0.465762	0.410177	-0.367633	56.240930	-65.591129	17.918472
52335		-0.691132	-0.467738	0.407535	-0.370773	56.227376	-65.528969	18.474914
52336		-0.689622	-0.469757	0.404811	-0.374002	56.213527	-65.465821	19.047738
52337		-0.688076	-0.471791	0.402051	-0.377254	56.203139	-65.402226	19.623364
52338		-0.686491	-0.473765	0.399346	-0.380525	56.183600	-65.347461	20.204685
52339		-0.684786	-0.475843	0.396570	-0.383894	56.180671	-65.295762	20.792563
52340		-0.682975	-0.478018	0.393740	-0.387314	56.199413	-65.246278	21.376660
52341		-0.681017	-0.480316	0.390856	-0.390824	56.242579	-65.202727	21.960776
52342		-0.678988	-0.482622	0.388007	-0.394337	56.294747	-65.166994	22.538545
52343		-0.676932	-0.484882	0.385238	-0.397798	56.349844	-65.139085	23.104379
52344		-0.674913	-0.486976	0.382640	-0.401164	56.386197	-65.122934	23.661334
52345		-0.672910	-0.488971	0.380188	-0.404422	56.420272	-65.116570	24.198737
52346		-0.670944	-0.490800	0.377939	-0.407567	56.438094	-65.123932	24.721977
52347		-0.669012	-0.492528	0.375824	-0.410605	56.450828	-65.138901	25.228002
52348		-0.667095	-0.494157	0.373913	-0.413501	56.467187	-65.167434	25.703418
52349		-0.665190	-0.495682	0.372169	-0.416308	56.476835	-65.208306	26.163522
52350		-0.663350	-0.497048	0.370623	-0.418986	56.470526	-65.260156	26.607321
52351		-0.661572	-0.498326	0.369189	-0.421536	56.461685	-65.314711	27.030463
52352		-0.659828	-0.499541	0.367890	-0.423960	56.457392	-65.375747	27.427939
52353		-0.658015	-0.500822	0.366613	-0.426366	56.474981	-65.442039	27.809002
52354		-0.656131	-0.502179	0.365347	-0.428755	56.515967	-65.512739	28.173625
52355		-0.654155	-0.503669	0.364010	-0.431156	56.588558	-65.582517	28.524440
52356		-0.652093	-0.505262	0.362630	-0.433572	56.685725	-65.653942	28.865025
52357		-0.649924	-0.506965	0.361139	-0.436078	56.797877	-65.724350	29.214866
52358		-0.647674	-0.508703	0.359636	-0.438635	56.914840	-65.800669	29.570412
52359		-0.645379	-0.510437	0.358097	-0.441257	57.022354	-65.878838	29.943472
52360		-0.643086	-0.512072	0.356593	-0.443919	57.101365	-65.962215	30.339161
52361		-0.640817	-0.513605	0.355063	-0.446648	57.144017	-66.044558	30.769107
52362		-0.638611	-0.515017	0.353467	-0.449438	57.143235	-66.119614	31.239056
52363		-0.636423	-0.516407	0.351631	-0.452378	57.106747	-66.176476	31.764904
52364		-0.634311	-0.517801	0.349474	-0.455412	57.045101	-66.202187	32.335838
52365		-0.632125	-0.519388	0.346875	-0.458620	56.997205	-66.197184	32.944699
52366		-0.629859	-0.521217	0.343802	-0.461964	56.981284	-66.157485	33.576192
52367		-0.627437	-0.523355	0.340313	-0.465412	57.024840	-66.092750	34.206084
52368		-0.624862	-0.525808	0.336444	-0.468912	57.138041	-66.004601	34.819257
52369		-0.622063	-0.528620	0.332180	-0.472499	57.330018	-65.897844	35.416544
52370		-0.619064	-0.531694	0.327651	-0.476136	57.584988	-65.782079	35.996890
52371		-0.615937	-0.534879	0.322979	-0.479802	57.868442	-65.663614	36.573445
52372		-0.612837	-0.537980	0.318429	-0.483334	58.155598	-65.552109	37.125365
52373		-0.609812	-0.540895	0.314071	-0.486746	58.419018	-65.450926	37.667828
52374		-0.606966	-0.543519	0.310028	-0.489961	58.642007	-65.361974	38.193499
52375		-0.604319	-0.545841	0.306342	-0.492961	58.823887	-65.286955	38.697529
52376		-0.601944	-0.547831	0.303017	-0.495707	58.959129	-65.220213	39.176908
52377		-0.599717	-0.549647	0.299909	-0.498279	59.076825	-65.158939	39.632141
52378		-0.597601	-0.551371	0.296917	-0.500703	59.192446	-65.096935	40.062368
52379		-0.595521	-0.553119	0.293927	-0.503011	59.329936	-65.030178	40.463437
52380		-0.593474	-0.554909	0.290905	-0.505211	59.491978	-64.955826	40.836576
52381		-0.591422	-0.556790	0.287736	-0.507359	59.682706	-64.867930	41.192913
52382		-0.589263	-0.558797	0.284454	-0.509510	59.907111	-64.777806	41.536676
52383		-0.587012	-0.560902	0.280986	-0.511716	60.149996	-64.679451	41.888150
52384		-0.584685	-0.563039	0.277444	-0.513961	60.398734	-64.581186	42.247344
52385		-0.582232	-0.565197	0.273812	-0.516319	60.642995	-64.487096	42.632216
52386		-0.579647	-0.567339	0.270162	-0.518796	60.874086	-64.404060	43.045523
52387		-0.576909	-0.569469	0.266466	-0.521419	61.090432	-64.331627	43.493703
52388		-0.574005	-0.571555	0.262793	-0.524198	61.284407	-64.277238	43.979532
52389		-0.570954	-0.573602	0.259135	-0.527107	61.459549	-64.237962	44.497655
52390		-0.567837	-0.575575	0.255604	-0.530039	61.619409	-64.215539	45.024451
52391		-0.564667	-0.577467	0.252197	-0.532991	61.762381	-64.208632	45.560492
52392		-0.561517	-0.579260	0.248998	-0.535869	61.893701	-64.217150	46.084296
52393		-0.558412	-0.580971	0.245991	-0.538644	62.019626	-64.237178	46.588577
52394		-0.555384	-0.582582	0.243217	-0.541288	62.138456	-64.269503	47.067744
52395		-0.552372	-0.584129	0.240607	-0.543863	62.251937	-64.313783	47.533545
52396		-0.549364	-0.585623	0.238193	-0.546360	62.363925	-64.373297	47.980874
52397		-0.546283	-0.587093	0.235868	-0.548874	62.470402	-64.446344	48.432147
52398		-0.543180	-0.588476	0.233661	-0.551410	62.554125	-64.531778	48.896423
52399		-0.539967	-0.589813	0.231571	-0.554014	62.620746	-64.636785	49.378040
52400		-0.536720	-0.591044	0.229616	-0.556664	62.656269	-64.756779	49.880893
52401		-0.533414	-0.592185	0.227749	-0.559390	62.660196	-64.889806	50.412388
52402		-0.530102	-0.593199	0.226022	-0.562157	62.625995	-65.035811	50.968423
52403		-0.526746	-0.594132	0.224329	-0.564997	62.561197	-65.188737	51.555101
52404		-0.523408	-0.594965	0.222710	-0.567857	62.465373	-65.346310	52.162574
52405		-0.519969	-0.595786	0.221058	-0.570794	62.355111	-65.509138	52.796375
52406		-0.516491	-0.596545	0.219398	-0.573791	62.218536	-65.674261	53.459395
52407		-0.512878	-0.597321	0.217629	-0.576890	62.071677	-65.840650	54.154746
52408		-0.509191	-0.598095	0.215773	-0.580043	61.914710	-66.004849	54.873422
52409		-0.505389	-0.598897	0.213776	-0.583270	61.753235	-66.165643	55.618721
52410		-0.501501	-0.599716	0.211687	-0.586537	61.588890	-66.324479	56.381591
52411		-0.497423	-0.600593	0.209350	-0.589941	61.421628	-66.477075	57.186521
52412		-0.493142	-0.601505	0.206704	-0.593528	61.240831	-66.619484	58.050240
52413		-0.488925	-0.602301	0.203982	-0.597141	61.022684	-66.748542	58.948015
52414		-0.484979	-0.602822	0.201475	-0.600674	60.734365	-66.870642	59.866186
