header=PacketCounter SampleTimeFine Quat_q0 Quat_q1 Quat_q2 Quat_q3 Roll Pitch Yaw
version=1
nRows=5331
nColumns=9
inDegrees=no
endheader
50856		0.853288	-0.314167	-0.389031	-0.147828	-40.111354	-49.182574	-0.687116
50857		0.853646	-0.314981	-0.387560	-0.147897	-40.173650	-49.012064	-0.729940
50858		0.854074	-0.315646	-0.386054	-0.147947	-40.210474	-48.836535	-0.783657
50859		0.854490	-0.316433	-0.384446	-0.148047	-40.260369	-48.651504	-0.841885
50860		0.854822	-0.317562	-0.382679	-0.148291	-40.352215	-48.454363	-0.905168
50861		0.855090	-0.318930	-0.380832	-0.148566	-40.478831	-48.249876	-0.960096
50862		0.855286	-0.320450	-0.378958	-0.148956	-40.623345	-48.047630	-1.022189
50863		0.855437	-0.322078	-0.377054	-0.149406	-40.781179	-47.845177	-1.087118
50864		0.855576	-0.323737	-0.375120	-0.149898	-40.940427	-47.641381	-1.158075
50865		0.855637	-0.325610	-0.373120	-0.150484	-41.127434	-47.434820	-1.231303
50866		0.855663	-0.327614	-0.371035	-0.151138	-41.328578	-47.222129	-1.310560
50867		0.855646	-0.329708	-0.368927	-0.151840	-41.541149	-47.009613	-1.392085
50868		0.855600	-0.331808	-0.366859	-0.152533	-41.757164	-46.802071	-1.470046
50869		0.855592	-0.333690	-0.364919	-0.153125	-41.948465	-46.605134	-1.541820
50870		0.855663	-0.335272	-0.363118	-0.153552	-42.105560	-46.417065	-1.603460
50871		0.855774	-0.336617	-0.361473	-0.153872	-42.236511	-46.242308	-1.657410
50872		0.855873	-0.337871	-0.359970	-0.154102	-42.363393	-46.080034	-1.696555
50873		0.855955	-0.339031	-0.358631	-0.154213	-42.488439	-45.931656	-1.715797
50874		0.856047	-0.340023	-0.357479	-0.154197	-42.600391	-45.799035	-1.717747
50875		0.856176	-0.340786	-0.356518	-0.154019	-42.691768	-45.680847	-1.701255
50876		0.856359	-0.341309	-0.355710	-0.153712	-42.756924	-45.574204	-1.674310
50877		0.856618	-0.341543	-0.355049	-0.153278	-42.787859	-45.478270	-1.640454
50878		0.856959	-0.341489	-0.354519	-0.152716	-42.784129	-45.391217	-1.600438
50879		0.857359	-0.341221	-0.354089	-0.152064	-42.754523	-45.311351	-1.556438
50880		0.857808	-0.340777	-0.353737	-0.151349	-42.702851	-45.237284	-1.510794
50881		0.858273	-0.340206	-0.353477	-0.150605	-42.636157	-45.172575	-1.463981
50882		0.858743	-0.339530	-0.353297	-0.149868	-42.555771	-45.117292	-1.420012
50883		0.859190	-0.338824	-0.353187	-0.149167	-42.471839	-45.071708	-1.378496
50884		0.859611	-0.338103	-0.353129	-0.148510	-42.385724	-45.034320	-1.340580
50885		0.860061	-0.337226	-0.353134	-0.147887	-42.275513	-45.005545	-1.313857
50886		0.860510	-0.336236	-0.353217	-0.147327	-42.147548	-44.988666	-1.298238
50887		0.860940	-0.335178	-0.353378	-0.146839	-42.008517	-44.983972	-1.292142
50888		0.861353	-0.334016	-0.353640	-0.146435	-41.852913	-44.994642	-1.298218
50889		0.861738	-0.332725	-0.354056	-0.146099	-41.679952	-45.026177	-1.312737
50890		0.862072	-0.331374	-0.354620	-0.145835	-41.499810	-45.077859	-1.332175
50891		0.862324	-0.329999	-0.355351	-0.145683	-41.317279	-45.154092	-1.358706
50892		0.862490	-0.328629	-0.356241	-0.145626	-41.137294	-45.252953	-1.388585
50893		0.862607	-0.327175	-0.357302	-0.145602	-40.948955	-45.373215	-1.418862
50894		0.862676	-0.325622	-0.358547	-0.145617	-40.749970	-45.516456	-1.450750
50895		0.862692	-0.323928	-0.360019	-0.145670	-40.535517	-45.687802	-1.484382
50896		0.862633	-0.322170	-0.361705	-0.145743	-40.317938	-45.885059	-1.513366
50897		0.862478	-0.320376	-0.363627	-0.145833	-40.102996	-46.110848	-1.534215
50898		0.862229	-0.318535	-0.365794	-0.145918	-39.890411	-46.365446	-1.543975
50899		0.861888	-0.316647	-0.368205	-0.145971	-39.681733	-46.647724	-1.539227
50900		0.861456	-0.314762	-0.370831	-0.145952	-39.486108	-46.952665	-1.512336
50901		0.860953	-0.312852	-0.373617	-0.145921	-39.293558	-47.276615	-1.477090
50902		0.860408	-0.310850	-0.376565	-0.145841	-39.095482	-47.618135	-1.432859
50903		0.859819	-0.308763	-0.379669	-0.145697	-38.893826	-47.976080	-1.377273
50904		0.859195	-0.306614	-0.382875	-0.145526	-38.687783	-48.345824	-1.317379
50905		0.858520	-0.304383	-0.386212	-0.145379	-38.472406	-48.732927	-1.260481
50906		0.857813	-0.302010	-0.389710	-0.145166	-38.244383	-49.137243	-1.196147
50907		0.857038	-0.299593	-0.393318	-0.145018	-38.009891	-49.558580	-1.139649
50908		0.856139	-0.297269	-0.397018	-0.145029	-37.785295	-49.998725	-1.095338
50909		0.855064	-0.295146	-0.400802	-0.145303	-37.582109	-50.461175	-1.070849
50910		0.853779	-0.293270	-0.404728	-0.145772	-37.415354	-50.950097	-1.048187
50911		0.852251	-0.291772	-0.408715	-0.146590	-37.294280	-51.462188	-1.044699
50912		0.850478	-0.290600	-0.412840	-0.147657	-37.220415	-52.002800	-1.043827
50913		0.848467	-0.289738	-0.417063	-0.149046	-37.184959	-52.569946	-1.059915
50914		0.846247	-0.289139	-0.421401	-0.150618	-37.190571	-53.160407	-1.073567
50915		0.843783	-0.288916	-0.425796	-0.152495	-37.247202	-53.772438	-1.096145
50916		0.841090	-0.289069	-0.430255	-0.154556	-37.365127	-54.402009	-1.106878
50917		0.838169	-0.289626	-0.434719	-0.156871	-37.543377	-55.045205	-1.115826
50918		0.835011	-0.290594	-0.439223	-0.159360	-37.793271	-55.703188	-1.104770
50919		0.831639	-0.291908	-0.443727	-0.162089	-38.097739	-56.374112	-1.091081
50920		0.828103	-0.293396	-0.448296	-0.164909	-38.441715	-57.059757	-1.060747
50921		0.824383	-0.295048	-0.452939	-0.167885	-38.820235	-57.764082	-1.023219
50922		0.820518	-0.296723	-0.457718	-0.170882	-39.223195	-58.489102	-0.963919
50923		0.816540	-0.298340	-0.462608	-0.173921	-39.632498	-59.232662	-0.895763
50924		0.812511	-0.299701	-0.467692	-0.176835	-40.029016	-59.997556	-0.804965
50925		0.808485	-0.300691	-0.472917	-0.179685	-40.379432	-60.779999	-0.720925
50926		0.804557	-0.301179	-0.478280	-0.182286	-40.671474	-61.571021	-0.628553
50927		0.800736	-0.301183	-0.483741	-0.184677	-40.899403	-62.367489	-0.539360
50928		0.797094	-0.300613	-0.489280	-0.186758	-41.048932	-63.162117	-0.451669
50929		0.793630	-0.299533	-0.494848	-0.188565	-41.122701	-63.950584	-0.372397
50930		0.790380	-0.297977	-0.500406	-0.190009	-41.131309	-64.723528	-0.287257
50931		0.787357	-0.295995	-0.505884	-0.191145	-41.070970	-65.474903	-0.209959
50932		0.784610	-0.293662	-0.511192	-0.191920	-40.953546	-66.190256	-0.131889
50933		0.782167	-0.291066	-0.516190	-0.192468	-40.766167	-66.858158	-0.086491
50934		0.780049	-0.288246	-0.520857	-0.192731	-40.520013	-67.472573	-0.061226
50935		0.778187	-0.285429	-0.525120	-0.192884	-40.240329	-68.031968	-0.065894
50936		0.776536	-0.282760	-0.528962	-0.192973	-39.956316	-68.535640	-0.087902
50937		0.774995	-0.280486	-0.532344	-0.193182	-39.704604	-68.986935	-0.127841
50938		0.773551	-0.278605	-0.535323	-0.193462	-39.499793	-69.389964	-0.165570
50939		0.772156	-0.277253	-0.537861	-0.193937	-39.358429	-69.745569	-0.207072
50940		0.770797	-0.276372	-0.540043	-0.194534	-39.287569	-70.060809	-0.233036
50941		0.769467	-0.275998	-0.541848	-0.195311	-39.287921	-70.335476	-0.250643
50942		0.768204	-0.275939	-0.543369	-0.196139	-39.336519	-70.575625	-0.254447
50943		0.767007	-0.276190	-0.544632	-0.196965	-39.445572	-70.782027	-0.226855
50944		0.765946	-0.276590	-0.545654	-0.197702	-39.583614	-70.952487	-0.177704
50945		0.765022	-0.277142	-0.546426	-0.198372	-39.746459	-71.086884	-0.113509
50946		0.764279	-0.277707	-0.547010	-0.198838	-39.923025	-71.186637	-0.020931
50947		0.763704	-0.278332	-0.547369	-0.199185	-40.107761	-71.250804	0.082660
50948		0.763331	-0.278991	-0.547495	-0.199346	-40.302250	-71.275255	0.206925
50949		0.763118	-0.279699	-0.547409	-0.199403	-40.498756	-71.266419	0.335957
50950		0.763041	-0.280482	-0.547143	-0.199330	-40.713799	-71.227210	0.486630
50951		0.763084	-0.281361	-0.546673	-0.199215	-40.935041	-71.159014	0.636834
50952		0.763265	-0.282307	-0.546023	-0.198968	-41.170456	-71.060276	0.805103
50953		0.763534	-0.283393	-0.545187	-0.198684	-41.425669	-70.934982	0.982426
50954		0.763910	-0.284589	-0.544170	-0.198317	-41.698310	-70.781750	1.172864
50955		0.764346	-0.286005	-0.542945	-0.197956	-42.001859	-70.601073	1.372559
50956		0.764885	-0.287578	-0.541517	-0.197510	-42.331534	-70.389248	1.589980
50957		0.765494	-0.289390	-0.539843	-0.197082	-42.687763	-70.145940	1.809012
50958		0.766162	-0.291411	-0.537990	-0.196575	-43.084202	-69.874916	2.054651
50959		0.766911	-0.293644	-0.535907	-0.196021	-43.507726	-69.571259	2.310218
50960		0.767743	-0.296021	-0.533679	-0.195266	-43.971361	-69.238173	2.608303
50961		0.768656	-0.298554	-0.531273	-0.194377	-44.461265	-68.874958	2.927988
50962		0.769639	-0.301176	-0.528772	-0.193261	-44.980576	-68.487533	3.286780
50963		0.770683	-0.303946	-0.526117	-0.192004	-45.523262	-68.072437	3.665484
50964		0.771786	-0.306826	-0.523346	-0.190562	-46.087469	-67.632300	4.069505
50965		0.772866	-0.309898	-0.520447	-0.189147	-46.665198	-67.176451	4.465404
50966		0.773874	-0.313184	-0.517455	-0.187816	-47.259760	-66.712434	4.849955
50967		0.774672	-0.316822	-0.514413	-0.186777	-47.888982	-66.255988	5.211381
50968		0.775234	-0.320714	-0.511441	-0.185966	-48.552405	-65.819090	5.564359
50969		0.775538	-0.324889	-0.508526	-0.185444	-49.250113	-65.403300	5.900840
50970		0.775600	-0.329176	-0.505795	-0.185093	-49.970701	-65.018686	6.236014
50971		0.775425	-0.333534	-0.503232	-0.185008	-50.694143	-64.669012	6.545391
50972		0.775073	-0.337816	-0.500883	-0.185090	-51.402849	-64.355206	6.833723
50973		0.774549	-0.341995	-0.498743	-0.185387	-52.087430	-64.079959	7.089999
50974		0.773893	-0.345934	-0.496898	-0.185772	-52.741737	-63.847229	7.332325
50975		0.773159	-0.349538	-0.495330	-0.186269	-53.340144	-63.657028	7.541933
50976		0.772411	-0.352625	-0.494140	-0.186713	-53.870414	-63.513364	7.738689
50977		0.771654	-0.355184	-0.493311	-0.187186	-54.321623	-63.418969	7.905873
50978		0.770915	-0.357115	-0.492920	-0.187588	-54.691456	-63.377643	8.060144
50979		0.770165	-0.358437	-0.492964	-0.188029	-54.975716	-63.395712	8.186319
50980		0.769406	-0.359131	-0.493472	-0.188482	-55.176987	-63.474984	8.291668
50981		0.768585	-0.359324	-0.494388	-0.189059	-55.309099	-63.614725	8.368106
50982		0.767722	-0.358997	-0.495721	-0.189696	-55.373896	-63.812235	8.424869
50983		0.766771	-0.358324	-0.497351	-0.190546	-55.382085	-64.061362	8.442007
50984		0.765756	-0.357349	-0.499234	-0.191533	-55.343747	-64.352130	8.431513
50985		0.764601	-0.356273	-0.501275	-0.192816	-55.279011	-64.681063	8.380226
50986		0.763283	-0.355156	-0.503487	-0.194329	-55.209409	-65.045210	8.310015
50987		0.761714	-0.354196	-0.505813	-0.196189	-55.164756	-65.443078	8.221930
50988		0.759882	-0.353427	-0.508272	-0.198314	-55.165583	-65.871754	8.140360
50989		0.757768	-0.352874	-0.510841	-0.200771	-55.209578	-66.332664	8.054858
50990		0.755391	-0.352443	-0.513609	-0.203407	-55.304379	-66.828392	7.995421
50991		0.752792	-0.352102	-0.516493	-0.206309	-55.420632	-67.354943	7.927264
50992		0.750031	-0.351675	-0.519563	-0.209362	-55.536014	-67.915628	7.854497
50993		0.747125	-0.351196	-0.522721	-0.212670	-55.630501	-68.505577	7.743929
50994		0.744157	-0.350539	-0.525984	-0.216087	-55.686289	-69.119096	7.601743
50995		0.741199	-0.349681	-0.529226	-0.219697	-55.657906	-69.746730	7.376066
50996		0.738351	-0.348536	-0.532472	-0.223236	-55.549183	-70.375556	7.101078
50997		0.735672	-0.347073	-0.535641	-0.226752	-55.320207	-70.998539	6.734806
50998		0.733213	-0.345275	-0.538794	-0.229966	-55.005943	-71.605312	6.337996
50999		0.730961	-0.343223	-0.541857	-0.232991	-54.595117	-72.192318	5.881873
51000		0.728935	-0.340913	-0.544897	-0.235624	-54.125669	-72.754669	5.422644
51001		0.727092	-0.338483	-0.547848	-0.237968	-53.612006	-73.289214	4.952795
51002		0.725487	-0.335851	-0.550777	-0.239827	-53.072627	-73.792172	4.515674
51003		0.724094	-0.333165	-0.553570	-0.241349	-52.511006	-74.257597	4.087922
51004		0.722909	-0.330448	-0.556242	-0.242488	-51.951072	-74.684283	3.695517
51005		0.721822	-0.328022	-0.558633	-0.243524	-51.428939	-75.067336	3.320660
51006		0.720804	-0.325929	-0.560755	-0.244472	-50.967147	-75.409068	2.981009
51007		0.719727	-0.324486	-0.562490	-0.245573	-50.620230	-75.707817	2.681441
51008		0.718630	-0.323628	-0.563866	-0.246761	-50.389370	-75.963082	2.435253
51009		0.717448	-0.323485	-0.564835	-0.248169	-50.294546	-76.176593	2.238927
51010		0.716274	-0.323882	-0.565457	-0.249620	-50.321487	-76.346104	2.109913
51011		0.715095	-0.324786	-0.565753	-0.251150	-50.457818	-76.476609	2.035515
51012		0.713986	-0.325950	-0.565837	-0.252606	-50.664246	-76.574451	2.012666
51013		0.712913	-0.327422	-0.565702	-0.254029	-50.952654	-76.641266	2.045201
51014		0.711931	-0.329001	-0.565449	-0.255305	-51.287991	-76.683397	2.126932
51015		0.711018	-0.330752	-0.565028	-0.256513	-51.667022	-76.699150	2.241113
51016		0.710242	-0.332477	-0.564525	-0.257542	-52.051555	-76.693102	2.377928
51017		0.709504	-0.334231	-0.563971	-0.258517	-52.445752	-76.677331	2.525860
51018		0.708833	-0.335885	-0.563452	-0.259343	-52.838556	-76.656992	2.694221
51019		0.708132	-0.337589	-0.562924	-0.260193	-53.245274	-76.636785	2.869751
51020		0.707433	-0.339288	-0.562397	-0.261021	-53.655246	-76.615519	3.050580
51021		0.706697	-0.341069	-0.561821	-0.261931	-54.069778	-76.593167	3.220950
51022		0.706014	-0.342740	-0.561289	-0.262731	-54.472104	-76.569714	3.398599
51023		0.705338	-0.344407	-0.560761	-0.263494	-54.880968	-76.544343	3.586201
51024		0.704732	-0.345955	-0.560354	-0.263953	-55.334382	-76.514939	3.856175
51025		0.704206	-0.347409	-0.560086	-0.264017	-55.863874	-76.476755	4.246034
51026		0.703846	-0.348578	-0.560104	-0.263396	-56.486590	-76.429617	4.816278
51027		0.703645	-0.349479	-0.560402	-0.262103	-57.201372	-76.372173	5.563374
51028		0.703738	-0.349927	-0.561029	-0.259906	-57.985974	-76.295453	6.501962
51029		0.704102	-0.349990	-0.561910	-0.256912	-58.820812	-76.196048	7.596458
51030		0.704816	-0.349506	-0.563076	-0.253034	-59.658710	-76.072948	8.821799
51031		0.705817	-0.348630	-0.564367	-0.248534	-60.465103	-75.923752	10.104893
51032		0.707124	-0.347363	-0.565712	-0.243482	-61.201542	-75.745448	11.400516
51033		0.708635	-0.345886	-0.566977	-0.238194	-61.845218	-75.543048	12.640882
51034		0.710351	-0.344192	-0.568133	-0.232718	-62.377252	-75.317997	13.803111
51035		0.712198	-0.342473	-0.569053	-0.227300	-62.794516	-75.070715	14.845000
51036		0.714158	-0.340724	-0.569750	-0.221971	-63.098079	-74.805982	15.765599
51037		0.716140	-0.339133	-0.570134	-0.216981	-63.297700	-74.528046	16.535749
51038		0.718139	-0.337769	-0.570184	-0.212319	-63.415953	-74.232397	17.172921
51039		0.720076	-0.336823	-0.569851	-0.208111	-63.491599	-73.917864	17.688085
51040		0.722014	-0.336210	-0.569155	-0.204257	-63.515370	-73.581445	18.088234
51041		0.723925	-0.336008	-0.568068	-0.200823	-63.500344	-73.222646	18.373945
51042		0.725851	-0.336117	-0.566664	-0.197631	-63.460057	-72.839354	18.583429
51043		0.727762	-0.336597	-0.564932	-0.194723	-63.409228	-72.431787	18.722170
51044		0.729670	-0.337413	-0.562906	-0.192018	-63.357477	-71.998834	18.810071
51045		0.731504	-0.338663	-0.560597	-0.189580	-63.334193	-71.543626	18.862225
51046		0.733275	-0.340240	-0.558075	-0.187340	-63.334334	-71.071964	18.889444
51047		0.734960	-0.342121	-0.555361	-0.185368	-63.349277	-70.591447	18.879326
51048		0.736594	-0.344179	-0.552524	-0.183541	-63.373668	-70.104267	18.848633
51049		0.738120	-0.346450	-0.549606	-0.181893	-63.426058	-69.616697	18.810221
51050		0.739579	-0.348767	-0.546683	-0.180340	-63.485888	-69.135186	18.765968
51051		0.740937	-0.351146	-0.543767	-0.178959	-63.553001	-68.666042	18.708213
51052		0.742204	-0.353492	-0.540950	-0.177620	-63.634679	-68.212375	18.664241
51053		0.743403	-0.355755	-0.538229	-0.176351	-63.713731	-67.776825	18.619393
51054		0.744586	-0.357770	-0.535670	-0.175071	-63.767053	-67.364960	18.573014
51055		0.745750	-0.359566	-0.533241	-0.173849	-63.789991	-66.977130	18.511992
51056		0.746900	-0.361057	-0.531016	-0.172631	-63.781468	-66.619492	18.448326
51057		0.748008	-0.362326	-0.528956	-0.171492	-63.748577	-66.290918	18.375060
51058		0.749083	-0.363314	-0.527096	-0.170431	-63.683559	-65.996121	18.290613
51059		0.750087	-0.364145	-0.525385	-0.169523	-63.601735	-65.731788	18.192058
51060		0.751023	-0.364771	-0.523852	-0.168776	-63.496363	-65.502516	18.076798
51061		0.751862	-0.365270	-0.522472	-0.168241	-63.377237	-65.307086	17.943055
51062		0.752603	-0.365624	-0.521263	-0.167904	-63.244773	-65.146907	17.794392
51063		0.753251	-0.365872	-0.520190	-0.167787	-63.099217	-65.018629	17.625175
51064		0.753814	-0.365989	-0.519285	-0.167809	-62.946154	-64.920540	17.450499
51065		0.754293	-0.366013	-0.518504	-0.168018	-62.782224	-64.850500	17.258998
51066		0.754691	-0.365932	-0.517878	-0.168338	-62.615689	-64.806622	17.066802
51067		0.755012	-0.365797	-0.517359	-0.168787	-62.447620	-64.783935	16.868426
51068		0.755256	-0.365581	-0.517000	-0.169266	-62.288916	-64.782163	16.685840
51069		0.755456	-0.365254	-0.516757	-0.169819	-62.119759	-64.800171	16.498036
51070		0.755605	-0.364820	-0.516655	-0.170393	-61.949859	-64.836851	16.318947
51071		0.755693	-0.364352	-0.516654	-0.171011	-61.786583	-64.888025	16.146978
51072		0.755717	-0.363837	-0.516772	-0.171642	-61.633320	-64.953814	15.989450
51073		0.755676	-0.363322	-0.516955	-0.172364	-61.484633	-65.032521	15.829464
51074		0.755589	-0.362760	-0.517228	-0.173109	-61.338911	-65.123490	15.675730
51075		0.755437	-0.362207	-0.517554	-0.173951	-61.197317	-65.226531	15.517636
51076		0.755232	-0.361659	-0.517946	-0.174815	-61.066530	-65.337956	15.368745
51077		0.754977	-0.361115	-0.518374	-0.175765	-60.936170	-65.458972	15.212924
51078		0.754700	-0.360557	-0.518840	-0.176727	-60.806982	-65.585188	15.058906
51079		0.754395	-0.360009	-0.519307	-0.177772	-60.672723	-65.716749	14.891900
51080		0.754076	-0.359467	-0.519780	-0.178834	-60.538557	-65.849953	14.722999
51081		0.753703	-0.359001	-0.520239	-0.180004	-60.410643	-65.987190	14.544166
51082		0.753304	-0.358569	-0.520697	-0.181209	-60.286742	-66.125918	14.363282
51083		0.752845	-0.358216	-0.521151	-0.182500	-60.174186	-66.268543	14.178956
51084		0.752361	-0.357931	-0.521586	-0.183811	-60.071946	-66.408900	13.997030
51085		0.751815	-0.357742	-0.522017	-0.185182	-59.987886	-66.551231	13.819225
51086		0.751255	-0.357580	-0.522467	-0.186495	-59.918657	-66.691234	13.658786
51087		0.750683	-0.357468	-0.522893	-0.187815	-59.856301	-66.828294	13.499825
51088		0.750108	-0.357350	-0.523348	-0.189065	-59.803254	-66.964145	13.356853
51089		0.749516	-0.357272	-0.523794	-0.190323	-59.757813	-67.098858	13.216982
51090		0.748924	-0.357190	-0.524268	-0.191498	-59.723875	-67.231458	13.096168
51091		0.748309	-0.357140	-0.524746	-0.192682	-59.698303	-67.364724	12.980032
51092		0.747726	-0.357052	-0.525223	-0.193806	-59.666978	-67.494576	12.866661
51093		0.747119	-0.357009	-0.525691	-0.194952	-59.643484	-67.624221	12.755066
51094		0.746550	-0.356900	-0.526171	-0.196037	-59.609690	-67.752353	12.644396
51095		0.745976	-0.356838	-0.526617	-0.197133	-59.580431	-67.876783	12.532568
51096		0.745425	-0.356733	-0.527082	-0.198158	-59.549692	-67.999480	12.429407
51097		0.744893	-0.356624	-0.527532	-0.199156	-59.516635	-68.118647	12.326331
51098		0.744380	-0.356477	-0.528000	-0.200098	-59.481840	-68.236981	12.229903
51099		0.743880	-0.356338	-0.528443	-0.201030	-59.444508	-68.351768	12.130893
51100		0.743414	-0.356172	-0.528896	-0.201856	-59.411890	-68.461123	12.047919
51101		0.742958	-0.356012	-0.529335	-0.202666	-59.378840	-68.567771	11.965230
51102		0.742535	-0.355781	-0.529804	-0.203397	-59.339950	-68.673702	11.890071
51103		0.742135	-0.355586	-0.530231	-0.204082	-59.306495	-68.771420	11.820505
51104		0.741773	-0.355344	-0.530661	-0.204701	-59.266644	-68.865749	11.754513
51105		0.741450	-0.355126	-0.531026	-0.205303	-59.220875	-68.951171	11.681187
51106		0.741164	-0.354867	-0.531400	-0.205813	-59.174810	-69.032198	11.619116
51107		0.740920	-0.354622	-0.531705	-0.206326	-59.116757	-69.105295	11.542944
51108		0.740698	-0.354382	-0.532000	-0.206777	-59.064112	-69.172986	11.476701
51109		0.740512	-0.354176	-0.532214	-0.207242	-59.002301	-69.231756	11.396289
51110		0.740338	-0.353996	-0.532399	-0.207696	-58.942198	-69.286073	11.315954
51111		0.740171	-0.353896	-0.532511	-0.208172	-58.887213	-69.332072	11.230808
51112		0.740074	-0.353748	-0.532594	-0.208557	-58.821165	-69.369420	11.146448
51113		0.740013	-0.353632	-0.532611	-0.208928	-58.751201	-69.397708	11.055805
51114		0.740010	-0.353495	-0.532601	-0.209196	-58.679885	-69.416294	10.974186
51115		0.740036	-0.353398	-0.532538	-0.209427	-58.613151	-69.425680	10.896091
51116		0.740124	-0.353273	-0.532450	-0.209552	-58.543670	-69.425415	10.826690
51117		0.740214	-0.353230	-0.532319	-0.209640	-58.493168	-69.416616	10.771366
51118		0.740336	-0.353191	-0.532169	-0.209656	-58.447466	-69.400756	10.726425
51119		0.740472	-0.353242	-0.531951	-0.209642	-58.416926	-69.373741	10.690479
51120		0.740636	-0.353280	-0.531740	-0.209534	-58.394005	-69.341457	10.671217
51121		0.740819	-0.353348	-0.531493	-0.209397	-58.375601	-69.302669	10.655897
51122		0.741046	-0.353387	-0.531237	-0.209179	-58.355493	-69.257865	10.648292
51123		0.741296	-0.353433	-0.530948	-0.208948	-58.331881	-69.208457	10.637346
51124		0.741575	-0.353428	-0.530678	-0.208651	-58.304583	-69.157551	10.633094
51125		0.741868	-0.353412	-0.530392	-0.208367	-58.269369	-69.105665	10.620714
51126		0.742185	-0.353350	-0.530116	-0.208044	-58.227517	-69.053217	10.609281
51127		0.742480	-0.353327	-0.529836	-0.207745	-58.193384	-69.001353	10.599914
51128		0.742800	-0.353260	-0.529554	-0.207434	-58.147661	-68.948965	10.583960
51129		0.743094	-0.353227	-0.529259	-0.207188	-58.102523	-68.899012	10.559828
51130		0.743377	-0.353189	-0.528986	-0.206933	-58.061683	-68.850994	10.541371
51131		0.743646	-0.353181	-0.528694	-0.206727	-58.020454	-68.803644	10.515527
51132		0.743890	-0.353185	-0.528453	-0.206461	-57.999498	-68.758050	10.514482
51133		0.744149	-0.353178	-0.528185	-0.206225	-57.966786	-68.711528	10.499799
51134		0.744399	-0.353140	-0.527979	-0.205914	-57.946185	-68.667783	10.507045
51135		0.744616	-0.353166	-0.527776	-0.205605	-57.944266	-68.623607	10.526907
51136		0.744820	-0.353170	-0.527615	-0.205273	-57.947040	-68.583148	10.555858
51137		0.744979	-0.353205	-0.527487	-0.204964	-57.962741	-68.547695	10.593305
51138		0.745130	-0.353184	-0.527419	-0.204625	-57.978139	-68.517829	10.638628
51139		0.745277	-0.353133	-0.527362	-0.204325	-57.983172	-68.492389	10.673155
51140		0.745408	-0.353029	-0.527383	-0.203972	-57.994260	-68.473373	10.723782
51141		0.745543	-0.352909	-0.527389	-0.203670	-57.992990	-68.456145	10.759092
51142		0.745684	-0.352741	-0.527430	-0.203341	-57.987799	-68.441850	10.797526
51143		0.745804	-0.352622	-0.527449	-0.203058	-57.987322	-68.427277	10.831950
51144		0.745918	-0.352518	-0.527475	-0.202752	-57.994703	-68.411864	10.874957
51145		0.746003	-0.352484	-0.527467	-0.202517	-58.007604	-68.396131	10.910792
51146		0.746082	-0.352464	-0.527471	-0.202251	-58.030277	-68.379521	10.957755
51147		0.746137	-0.352520	-0.527442	-0.202027	-58.062893	-68.360748	11.003996
51148		0.746172	-0.352619	-0.527416	-0.201792	-58.109573	-68.340986	11.061150
51149		0.746192	-0.352743	-0.527363	-0.201637	-58.149450	-68.322958	11.102377
51150		0.746206	-0.352869	-0.527318	-0.201484	-58.191073	-68.305860	11.145025
51151		0.746197	-0.353039	-0.527257	-0.201378	-58.237258	-68.289374	11.184035
51152		0.746189	-0.353176	-0.527219	-0.201268	-58.278891	-68.275796	11.222083
51153		0.746178	-0.353311	-0.527165	-0.201213	-58.311424	-68.263985	11.246396
51154		0.746179	-0.353388	-0.527139	-0.201142	-58.334707	-68.255174	11.268450
51155		0.746163	-0.353465	-0.527123	-0.201107	-58.356592	-68.249806	11.286097
51156		0.746155	-0.353532	-0.527114	-0.201045	-58.379661	-68.243675	11.308245
51157		0.746134	-0.353614	-0.527096	-0.201028	-58.400661	-68.239217	11.323029
51158		0.746112	-0.353703	-0.527095	-0.200954	-58.432669	-68.232922	11.353199
51159		0.746074	-0.353817	-0.527077	-0.200941	-58.462307	-68.228280	11.373333
51160		0.746024	-0.353945	-0.527080	-0.200893	-58.503543	-68.223565	11.406991
51161		0.745953	-0.354103	-0.527078	-0.200884	-58.548208	-68.220416	11.437939
51162		0.745880	-0.354242	-0.527106	-0.200833	-58.598211	-68.218203	11.479756
51163		0.745788	-0.354382	-0.527143	-0.200836	-58.644489	-68.220385	11.513435
51164		0.745703	-0.354479	-0.527206	-0.200811	-58.687134	-68.224551	11.549885
51165		0.745609	-0.354564	-0.527280	-0.200818	-58.725408	-68.232260	11.580526
51166		0.745529	-0.354600	-0.527364	-0.200829	-58.751838	-68.242095	11.603568
51167		0.745457	-0.354640	-0.527425	-0.200867	-58.771697	-68.251025	11.617192
51168		0.745385	-0.354660	-0.527494	-0.200917	-58.786435	-68.261962	11.626518
51169		0.745293	-0.354735	-0.527525	-0.201045	-58.801223	-68.272719	11.623958
51170		0.745181	-0.354849	-0.527556	-0.201179	-58.826174	-68.283380	11.627505
51171		0.745052	-0.354996	-0.527566	-0.201370	-58.850340	-68.294806	11.622167
51172		0.744911	-0.355145	-0.527610	-0.201514	-58.886950	-68.307011	11.633346
51173		0.744782	-0.355281	-0.527631	-0.201696	-58.911418	-68.319323	11.630256
51174		0.744652	-0.355400	-0.527677	-0.201845	-58.939419	-68.332602	11.635198
51175		0.744506	-0.355529	-0.527722	-0.202038	-58.965831	-68.348496	11.634042
51176		0.744373	-0.355609	-0.527788	-0.202214	-58.984658	-68.366436	11.631250
51177		0.744223	-0.355737	-0.527824	-0.202450	-59.004328	-68.384193	11.619645
51178		0.744069	-0.355840	-0.527879	-0.202692	-59.020684	-68.404837	11.606642
51179		0.743895	-0.356007	-0.527885	-0.203016	-59.036675	-68.424429	11.579969
51180		0.743723	-0.356158	-0.527909	-0.203321	-59.053769	-68.445028	11.557686
51181		0.743528	-0.356394	-0.527883	-0.203688	-59.078036	-68.462648	11.529156
51182		0.743348	-0.356601	-0.527874	-0.204008	-59.102701	-68.479508	11.507774
51183		0.743135	-0.356878	-0.527847	-0.204369	-59.139223	-68.495992	11.488057
51184		0.742938	-0.357139	-0.527837	-0.204656	-59.182101	-68.509816	11.482778
51185		0.742735	-0.357406	-0.527841	-0.204914	-59.232971	-68.523347	11.487395
51186		0.742556	-0.357593	-0.527895	-0.205099	-59.278670	-68.538956	11.500911
51187		0.742358	-0.357775	-0.527974	-0.205291	-59.327972	-68.557947	11.518003
51188		0.742197	-0.357867	-0.528091	-0.205414	-59.366578	-68.578207	11.538929
51189		0.742004	-0.357948	-0.528241	-0.205585	-59.403895	-68.605522	11.555774
51190		0.741835	-0.357992	-0.528400	-0.205707	-59.438102	-68.631249	11.577242
51191		0.741665	-0.358014	-0.528551	-0.205895	-59.457591	-68.660713	11.580159
51192		0.741507	-0.358011	-0.528721	-0.206030	-59.479531	-68.689390	11.592570
51193		0.741344	-0.358023	-0.528884	-0.206181	-59.502361	-68.717918	11.603193
51194		0.741202	-0.357999	-0.529067	-0.206263	-59.526518	-68.744771	11.624320
51195		0.741063	-0.358000	-0.529229	-0.206343	-59.553623	-68.768734	11.646102
51196		0.740926	-0.357990	-0.529414	-0.206382	-59.586385	-68.792717	11.678282
51197		0.740783	-0.358026	-0.529578	-0.206409	-59.629311	-68.812770	11.717150
51198		0.740662	-0.357998	-0.529766	-0.206410	-59.661937	-68.834963	11.753995
51199		0.740542	-0.357987	-0.529946	-0.206400	-59.698451	-68.855066	11.794148
51200		0.740467	-0.357886	-0.530146	-0.206328	-59.720272	-68.874824	11.833125
51201		0.740400	-0.357786	-0.530331	-0.206267	-59.737790	-68.893573	11.866699
51202		0.740349	-0.357646	-0.530536	-0.206167	-59.752205	-68.912609	11.904443
51203		0.740288	-0.357550	-0.530717	-0.206085	-59.772315	-68.929503	11.941919
51204		0.740244	-0.357425	-0.530901	-0.205985	-59.786435	-68.945854	11.977719
51205		0.740194	-0.357343	-0.531050	-0.205924	-59.801683	-68.960135	12.007037
51206		0.740156	-0.357257	-0.531202	-0.205819	-59.820714	-68.971885	12.044263
51207		0.740120	-0.357176	-0.531331	-0.205752	-59.832531	-68.983601	12.070282
51208		0.740108	-0.357082	-0.531452	-0.205647	-59.842418	-68.991981	12.098853
51209		0.740105	-0.357000	-0.531539	-0.205577	-59.845136	-68.998530	12.115806
51210		0.740106	-0.356919	-0.531638	-0.205460	-59.855087	-69.003323	12.144019
51211		0.740101	-0.356875	-0.531708	-0.205369	-59.867197	-69.006072	12.168519
51212		0.740124	-0.356800	-0.531776	-0.205240	-59.873590	-69.006469	12.193280
51213		0.740130	-0.356772	-0.531832	-0.205123	-59.889687	-69.005518	12.222351
51214		0.740153	-0.356732	-0.531886	-0.204971	-59.905351	-69.002101	12.255052
51215		0.740173	-0.356693	-0.531936	-0.204836	-59.918753	-68.999411	12.283987
51216		0.740221	-0.356622	-0.532002	-0.204614	-59.935359	-68.993292	12.326361
51217		0.740269	-0.356567	-0.532050	-0.204411	-59.950728	-68.986084	12.364461
51218		0.740315	-0.356506	-0.532121	-0.204168	-59.973332	-68.978913	12.413805
51219		0.740361	-0.356475	-0.532155	-0.203967	-59.991904	-68.969836	12.452543
51220		0.740393	-0.356457	-0.532202	-0.203760	-60.017956	-68.961659	12.498246
51221		0.740414	-0.356459	-0.532232	-0.203600	-60.041402	-68.954235	12.535265
51222		0.740441	-0.356408	-0.532295	-0.203428	-60.057768	-68.950779	12.571385
51223		0.740455	-0.356397	-0.532322	-0.203325	-60.070864	-68.947214	12.594536
51224		0.740481	-0.356317	-0.532383	-0.203208	-60.073148	-68.947705	12.614510
51225		0.740506	-0.356254	-0.532412	-0.203150	-60.067381	-68.948202	12.619658
51226		0.740538	-0.356147	-0.532462	-0.203092	-60.053582	-68.951801	12.621022
51227		0.740551	-0.356088	-0.532487	-0.203085	-60.042579	-68.955125	12.616243
51228		0.740548	-0.356037	-0.532527	-0.203081	-60.037082	-68.960284	12.616157
51229		0.740519	-0.356051	-0.532531	-0.203151	-60.035158	-68.965172	12.607033
51230		0.740484	-0.356039	-0.532572	-0.203191	-60.036800	-68.972822	12.606771
51231		0.740442	-0.356082	-0.532586	-0.203233	-60.048061	-68.976416	12.610740
51232		0.740413	-0.356078	-0.532634	-0.203220	-60.058592	-68.981150	12.623163
51233		0.740381	-0.356096	-0.532658	-0.203238	-60.067578	-68.984824	12.629125
51234		0.740368	-0.356078	-0.532702	-0.203204	-60.075337	-68.987842	12.641887
51235		0.740361	-0.356084	-0.532715	-0.203186	-60.081993	-68.988013	12.649629
51236		0.740371	-0.356070	-0.532725	-0.203146	-60.084095	-68.986697	12.656480
51237		0.740358	-0.356122	-0.532707	-0.203152	-60.094186	-68.984130	12.661179
51238		0.740358	-0.356175	-0.532674	-0.203146	-60.102966	-68.979037	12.665307
51239		0.740348	-0.356263	-0.532605	-0.203207	-60.106936	-68.973878	12.655429
51240		0.740352	-0.356349	-0.532525	-0.203252	-60.109564	-68.966248	12.645650
51241		0.740334	-0.356494	-0.532410	-0.203366	-60.114134	-68.958364	12.626241
51242		0.740324	-0.356640	-0.532283	-0.203478	-60.117001	-68.948920	12.605101
51243		0.740299	-0.356820	-0.532130	-0.203655	-60.117086	-68.940243	12.572332
51244		0.740283	-0.356979	-0.531979	-0.203826	-60.112264	-68.931894	12.537168
51245		0.740256	-0.357141	-0.531822	-0.204050	-60.101891	-68.926210	12.491487
51246		0.740239	-0.357256	-0.531696	-0.204238	-60.088318	-68.922575	12.450361
51247		0.740221	-0.357397	-0.531551	-0.204436	-60.077060	-68.916858	12.408043
51248		0.740220	-0.357484	-0.531436	-0.204586	-60.061572	-68.912380	12.370911
51249		0.740215	-0.357569	-0.531329	-0.204733	-60.047765	-68.908619	12.335854
51250		0.740220	-0.357635	-0.531236	-0.204839	-60.035974	-68.904049	12.308152
51251		0.740206	-0.357746	-0.531131	-0.204971	-60.031328	-68.899093	12.281188
51252		0.740202	-0.357849	-0.531023	-0.205085	-60.025904	-68.892563	12.255694
51253		0.740192	-0.358021	-0.530871	-0.205214	-60.029217	-68.881114	12.230910
51254		0.740168	-0.358168	-0.530752	-0.205353	-60.031323	-68.874387	12.206670
51255		0.740147	-0.358337	-0.530601	-0.205523	-60.029895	-68.865811	12.173942
51256		0.740131	-0.358499	-0.530460	-0.205663	-60.031596	-68.856409	12.147644
51257		0.740102	-0.358672	-0.530319	-0.205829	-60.033675	-68.848640	12.118520
51258		0.740083	-0.358809	-0.530197	-0.205971	-60.032206	-68.842011	12.091348
51259		0.740048	-0.358976	-0.530061	-0.206154	-60.032347	-68.836023	12.059377
51260		0.740036	-0.359092	-0.529944	-0.206299	-60.025711	-68.830422	12.028770
51261		0.740001	-0.359232	-0.529824	-0.206489	-60.020668	-68.827277	11.993674
51262		0.739980	-0.359321	-0.529736	-0.206633	-60.012852	-68.825291	11.964642
51263		0.739931	-0.359447	-0.529644	-0.206826	-60.009715	-68.825693	11.932731
51264		0.739899	-0.359541	-0.529568	-0.206972	-60.005468	-68.825409	11.906850
51265		0.739848	-0.359641	-0.529510	-0.207128	-60.006051	-68.827560	11.884491
51266		0.739811	-0.359716	-0.529467	-0.207240	-60.007043	-68.828944	11.868796
51267		0.739755	-0.359800	-0.529440	-0.207364	-60.012972	-68.832761	11.856157
51268		0.739728	-0.359851	-0.529412	-0.207444	-60.013635	-68.834156	11.845142
51269		0.739668	-0.359914	-0.529401	-0.207573	-60.016368	-68.840664	11.831041
51270		0.739633	-0.359939	-0.529403	-0.207652	-60.015831	-68.845674	11.821577
51271		0.739592	-0.359959	-0.529393	-0.207788	-60.006157	-68.853391	11.798425
51272		0.739565	-0.359923	-0.529418	-0.207883	-59.991626	-68.863221	11.779364
51273		0.739534	-0.359901	-0.529429	-0.208004	-59.975360	-68.872890	11.755023
51274		0.739511	-0.359846	-0.529462	-0.208096	-59.957613	-68.883691	11.734826
51275		0.739489	-0.359788	-0.529488	-0.208210	-59.934992	-68.895324	11.708123
51276		0.739487	-0.359706	-0.529523	-0.208267	-59.913315	-68.904425	11.689423
51277		0.739492	-0.359629	-0.529539	-0.208344	-59.886866	-68.912554	11.663712
51278		0.739514	-0.359521	-0.529564	-0.208388	-59.856817	-68.920057	11.640019
51279		0.739529	-0.359460	-0.529567	-0.208434	-59.834907	-68.924482	11.619862
51280		0.739564	-0.359373	-0.529570	-0.208451	-59.808935	-68.927405	11.600426
51281		0.739588	-0.359334	-0.529542	-0.208504	-59.786225	-68.928277	11.576596
51282		0.739625	-0.359275	-0.529518	-0.208534	-59.761034	-68.928485	11.553957
51283		0.739657	-0.359254	-0.529465	-0.208593	-59.737407	-68.926679	11.526813
51284		0.739720	-0.359189	-0.529403	-0.208639	-59.700642	-68.923556	11.491392
51285		0.739763	-0.359153	-0.529330	-0.208733	-59.664816	-68.921975	11.450351
51286		0.739850	-0.359093	-0.529233	-0.208773	-59.622570	-68.914480	11.409201
51287		0.739916	-0.359081	-0.529115	-0.208858	-59.585146	-68.906697	11.364543
51288		0.740006	-0.359039	-0.528998	-0.208911	-59.542160	-68.897402	11.319764
51289		0.740105	-0.359006	-0.528848	-0.208995	-59.491995	-68.886271	11.264053
51290		0.740202	-0.358979	-0.528709	-0.209050	-59.448756	-68.874269	11.217367
51291		0.740281	-0.358997	-0.528545	-0.209154	-59.408342	-68.862008	11.164849
51292		0.740381	-0.358998	-0.528378	-0.209222	-59.366043	-68.847269	11.115123
51293		0.740452	-0.359038	-0.528214	-0.209315	-59.332869	-68.833940	11.068871
51294		0.740532	-0.359060	-0.528050	-0.209408	-59.294937	-68.820873	11.019427
51295		0.740601	-0.359101	-0.527876	-0.209533	-59.256972	-68.808545	10.965358
51296		0.740665	-0.359112	-0.527738	-0.209632	-59.220976	-68.799002	10.918630
51297		0.740713	-0.359144	-0.527597	-0.209764	-59.186917	-68.790999	10.869090
51298		0.740758	-0.359144	-0.527494	-0.209865	-59.154768	-68.785843	10.827446
51299		0.740794	-0.359144	-0.527400	-0.209975	-59.123735	-68.782244	10.786145
51300		0.740835	-0.359104	-0.527344	-0.210040	-59.093523	-68.780639	10.753559
51301		0.740865	-0.359086	-0.527289	-0.210103	-59.070205	-68.778711	10.725983
51302		0.740891	-0.359050	-0.527261	-0.210144	-59.049912	-68.778710	10.705292
51303		0.740902	-0.359043	-0.527228	-0.210197	-59.035607	-68.778468	10.686770
51304		0.740899	-0.359040	-0.527220	-0.210232	-59.029554	-68.779982	10.677991
51305		0.740876	-0.359065	-0.527202	-0.210315	-59.024470	-68.783060	10.663280
51306		0.740841	-0.359101	-0.527196	-0.210394	-59.025340	-68.787105	10.654128
51307		0.740780	-0.359179	-0.527168	-0.210544	-59.026365	-68.792689	10.635064
51308		0.740701	-0.359284	-0.527161	-0.210662	-59.042963	-68.798203	10.631985
51309		0.740625	-0.359368	-0.527136	-0.210850	-59.042662	-68.806555	10.607834
51310		0.740539	-0.359455	-0.527147	-0.210973	-59.057526	-68.814792	10.604328
51311		0.740438	-0.359526	-0.527167	-0.211159	-59.062912	-68.828385	10.587636
51312		0.740326	-0.359587	-0.527223	-0.211306	-59.077379	-68.843792	10.584584
51313		0.740193	-0.359667	-0.527277	-0.211500	-59.091835	-68.861737	10.575794
51314		0.740043	-0.359716	-0.527385	-0.211673	-59.111053	-68.885111	10.576833
51315		0.739854	-0.359831	-0.527477	-0.211911	-59.139160	-68.909915	10.575184
51316		0.739641	-0.359931	-0.527606	-0.212163	-59.169450	-68.940218	10.576259
51317		0.739407	-0.360034	-0.527734	-0.212486	-59.193011	-68.975023	10.564214
51318		0.739193	-0.360083	-0.527904	-0.212723	-59.219206	-69.009902	10.567381
51319		0.739008	-0.360059	-0.528084	-0.212959	-59.226224	-69.046803	10.558345
51320		0.738873	-0.359943	-0.528298	-0.213096	-59.223901	-69.082280	10.557080
51321		0.738759	-0.359781	-0.528528	-0.213192	-59.216198	-69.117696	10.558307
51322		0.738696	-0.359530	-0.528798	-0.213164	-59.203729	-69.150754	10.573825
51323		0.738675	-0.359229	-0.529071	-0.213067	-59.184790	-69.180185	10.593276
51324		0.738725	-0.358845	-0.529359	-0.212823	-59.160290	-69.202826	10.627386
51325		0.738793	-0.358465	-0.529632	-0.212549	-59.136613	-69.221731	10.664417
51326		0.738897	-0.358057	-0.529908	-0.212187	-59.114934	-69.235433	10.713348
51327		0.739033	-0.357705	-0.530120	-0.211779	-59.100650	-69.238031	10.768031
51328		0.739208	-0.357355	-0.530316	-0.211268	-59.094425	-69.231796	10.838928
51329		0.739430	-0.357036	-0.530434	-0.210735	-59.082726	-69.214682	10.902796
51330		0.739700	-0.356729	-0.530503	-0.210131	-59.071367	-69.187094	10.971362
51331		0.739980	-0.356520	-0.530479	-0.209556	-59.065753	-69.149251	11.033272
51332		0.740254	-0.356378	-0.530427	-0.208964	-59.074737	-69.105990	11.104926
51333		0.740541	-0.356328	-0.530282	-0.208399	-59.087781	-69.052516	11.169079
51334		0.740850	-0.356282	-0.530105	-0.207830	-59.095488	-68.994907	11.227453
51335		0.741163	-0.356277	-0.529879	-0.207296	-59.100591	-68.933503	11.276159
51336		0.741495	-0.356246	-0.529661	-0.206722	-59.104005	-68.870618	11.328992
51337		0.741850	-0.356191	-0.529427	-0.206140	-59.098019	-68.805925	11.374946
51338		0.742251	-0.356063	-0.529202	-0.205495	-59.079349	-68.739125	11.420494
51339		0.742679	-0.355907	-0.528972	-0.204807	-59.056195	-68.669597	11.467584
51340		0.743109	-0.355690	-0.528790	-0.204096	-59.028074	-68.604905	11.517705
51341		0.743564	-0.355442	-0.528594	-0.203376	-58.989113	-68.538490	11.560429
51342		0.744033	-0.355147	-0.528426	-0.202613	-58.947321	-68.473324	11.608572
51343		0.744507	-0.354860	-0.528246	-0.201840	-58.906381	-68.406146	11.657400
51344		0.745015	-0.354508	-0.528078	-0.201025	-58.854167	-68.338656	11.704664
51345		0.745540	-0.354132	-0.527891	-0.200226	-58.789983	-68.270456	11.740451
51346		0.746092	-0.353728	-0.527695	-0.199400	-58.718959	-68.199925	11.774262
51347		0.746658	-0.353322	-0.527474	-0.198587	-58.641115	-68.127606	11.800047
51348		0.747262	-0.352881	-0.527228	-0.197750	-58.551266	-68.051350	11.818768
51349		0.747848	-0.352471	-0.526956	-0.196988	-58.457899	-67.976748	11.824512
51350		0.748455	-0.352093	-0.526641	-0.196202	-58.367490	-67.895138	11.831841
51351		0.749048	-0.351782	-0.526260	-0.195519	-58.272499	-67.811627	11.819102
51352		0.749655	-0.351469	-0.525844	-0.194872	-58.167079	-67.726651	11.792819
51353		0.750246	-0.351257	-0.525350	-0.194313	-58.065649	-67.636743	11.753072
51354		0.750825	-0.351116	-0.524803	-0.193808	-57.968625	-67.543291	11.706116
51355		0.751378	-0.351085	-0.524184	-0.193394	-57.879208	-67.445725	11.648415
51356		0.751913	-0.351114	-0.523551	-0.192976	-57.804490	-67.345340	11.600073
51357		0.752428	-0.351219	-0.522866	-0.192635	-57.733037	-67.242793	11.541068
51358		0.752931	-0.351353	-0.522164	-0.192332	-57.663438	-67.140311	11.477822
51359		0.753421	-0.351526	-0.521442	-0.192053	-57.599040	-67.036603	11.413894
51360		0.753941	-0.351654	-0.520713	-0.191756	-57.523563	-66.931551	11.344555
51361		0.754451	-0.351794	-0.519965	-0.191521	-57.442663	-66.828148	11.263135
51362		0.754959	-0.351919	-0.519222	-0.191304	-57.357873	-66.726727	11.177760
51363		0.755448	-0.352082	-0.518467	-0.191126	-57.277884	-66.625791	11.090213
51364		0.755920	-0.352239	-0.517739	-0.190941	-57.203117	-66.527667	11.009337
51365		0.756361	-0.352442	-0.517000	-0.190823	-57.132503	-66.431869	10.922597
51366		0.756779	-0.352654	-0.516290	-0.190694	-57.071613	-66.338723	10.845857
51367		0.757158	-0.352925	-0.515562	-0.190664	-57.013816	-66.248748	10.758431
51368		0.757502	-0.353180	-0.514889	-0.190641	-56.962079	-66.165966	10.678180
51369		0.757805	-0.353456	-0.514230	-0.190704	-56.910672	-66.090011	10.589469
51370		0.758080	-0.353699	-0.513625	-0.190793	-56.858393	-66.022242	10.501094
51371		0.758309	-0.353966	-0.513042	-0.190953	-56.809901	-65.961322	10.408592
51372		0.758528	-0.354196	-0.512513	-0.191078	-56.765251	-65.904974	10.326755
51373		0.758699	-0.354436	-0.512033	-0.191240	-56.728453	-65.856335	10.249346
51374		0.758845	-0.354645	-0.511612	-0.191401	-56.694345	-65.814953	10.178007
51375		0.758938	-0.354903	-0.511224	-0.191589	-56.676142	-65.778533	10.116270
51376		0.759010	-0.355128	-0.510899	-0.191756	-56.662482	-65.748448	10.064380
51377		0.759039	-0.355371	-0.510614	-0.191949	-56.657943	-65.724372	10.018248
51378		0.759039	-0.355585	-0.510403	-0.192113	-56.661693	-65.707463	9.986304
51379		0.759008	-0.355806	-0.510225	-0.192300	-56.670402	-65.695721	9.957115
51380		0.758975	-0.355941	-0.510130	-0.192433	-56.676623	-65.691387	9.938757
51381		0.758921	-0.356057	-0.510078	-0.192568	-56.685036	-65.692347	9.924618
51382		0.758844	-0.356132	-0.510087	-0.192711	-56.692588	-65.701415	9.913348
51383		0.758727	-0.356230	-0.510128	-0.192879	-56.709324	-65.715577	9.907289
51384		0.758607	-0.356267	-0.510215	-0.193055	-56.717577	-65.736220	9.898228
51385		0.758457	-0.356304	-0.510326	-0.193282	-56.725148	-65.762949	9.884513
51386		0.758284	-0.356321	-0.510491	-0.193491	-56.738766	-65.795093	9.880684
51387		0.758100	-0.356331	-0.510661	-0.193746	-56.746967	-65.830788	9.868282
51388		0.757903	-0.356301	-0.510886	-0.193978	-56.756848	-65.871912	9.863629
51389		0.757696	-0.356291	-0.511095	-0.194257	-56.764477	-65.913814	9.850935
51390		0.757465	-0.356264	-0.511356	-0.194520	-56.778202	-65.961097	9.847770
51391		0.757211	-0.356261	-0.511617	-0.194827	-56.794490	-66.010868	9.841090
51392		0.756956	-0.356200	-0.511937	-0.195089	-56.809889	-66.065307	9.843426
51393		0.756679	-0.356121	-0.512285	-0.195392	-56.822045	-66.125936	9.840883
51394		0.756407	-0.355964	-0.512699	-0.195647	-56.829862	-66.192171	9.845935
51395		0.756143	-0.355748	-0.513132	-0.195926	-56.823471	-66.262999	9.840312
51396		0.755874	-0.355455	-0.513631	-0.196186	-56.810552	-66.341220	9.837528
51397		0.755601	-0.355135	-0.514133	-0.196504	-56.785327	-66.423931	9.819993
51398		0.755330	-0.354774	-0.514665	-0.196805	-56.756539	-66.509509	9.804375
51399		0.755066	-0.354400	-0.515170	-0.197166	-56.713489	-66.596061	9.770230
51400		0.754790	-0.354029	-0.515692	-0.197525	-56.674293	-66.684377	9.740074
51401		0.754507	-0.353691	-0.516185	-0.197928	-56.634083	-66.771691	9.701916
51402		0.754219	-0.353372	-0.516679	-0.198303	-56.601756	-66.857181	9.672074
51403		0.753919	-0.353086	-0.517152	-0.198721	-56.570201	-66.942546	9.636216
51404		0.753646	-0.352777	-0.517619	-0.199090	-56.535847	-67.024489	9.603698
51405		0.753372	-0.352482	-0.518067	-0.199482	-56.499628	-67.105480	9.565893
51406		0.753119	-0.352158	-0.518521	-0.199832	-56.460412	-67.184835	9.531307
51407		0.752869	-0.351869	-0.518940	-0.200194	-56.422995	-67.260471	9.493928
51408		0.752624	-0.351582	-0.519363	-0.200520	-56.390608	-67.334393	9.464371
51409		0.752387	-0.351313	-0.519760	-0.200855	-56.356909	-67.405494	9.430881
51410		0.752181	-0.351025	-0.520152	-0.201114	-56.324832	-67.471475	9.407243
51411		0.751997	-0.350745	-0.520508	-0.201369	-56.288709	-67.532961	9.378640
51412		0.751842	-0.350440	-0.520874	-0.201533	-56.256335	-67.590168	9.363906
51413		0.751718	-0.350167	-0.521189	-0.201655	-56.228066	-67.638321	9.353292
51414		0.751628	-0.349855	-0.521503	-0.201721	-56.194122	-67.683188	9.345427
51415		0.751542	-0.349626	-0.521758	-0.201777	-56.173235	-67.719700	9.343158
51416		0.751471	-0.349428	-0.521972	-0.201835	-56.152941	-67.750923	9.338127
51417		0.751394	-0.349321	-0.522112	-0.201943	-56.138422	-67.775555	9.325586
51418		0.751326	-0.349269	-0.522203	-0.202053	-56.129669	-67.793910	9.313236
51419		0.751253	-0.349287	-0.522233	-0.202215	-56.123381	-67.807473	9.291885
51420		0.751222	-0.349298	-0.522234	-0.202306	-56.117098	-67.813239	9.276920
51421		0.751204	-0.349353	-0.522195	-0.202378	-56.117526	-67.812516	9.265823
51422		0.751210	-0.349396	-0.522142	-0.202421	-56.114807	-67.808453	9.255046
51423		0.751239	-0.349456	-0.522060	-0.202419	-56.116398	-67.797999	9.250508
51424		0.751293	-0.349503	-0.521979	-0.202348	-56.121384	-67.783320	9.256447
51425		0.751348	-0.349589	-0.521870	-0.202276	-56.132373	-67.764839	9.264608
51426		0.751429	-0.349674	-0.521742	-0.202156	-56.144212	-67.741192	9.277483
51427		0.751499	-0.349817	-0.521585	-0.202055	-56.164566	-67.714481	9.291793
51428		0.751580	-0.349963	-0.521420	-0.201929	-56.186667	-67.685324	9.309700
51429		0.751647	-0.350152	-0.521232	-0.201835	-56.213206	-67.654960	9.325039
51430		0.751726	-0.350351	-0.521033	-0.201711	-56.243477	-67.621192	9.345633
51431		0.751794	-0.350569	-0.520823	-0.201620	-56.273397	-67.588099	9.361241
51432		0.751872	-0.350764	-0.520614	-0.201527	-56.297390	-67.555235	9.373250
51433		0.751943	-0.350964	-0.520399	-0.201472	-56.317486	-67.523968	9.377676
51434		0.752033	-0.351120	-0.520191	-0.201399	-56.329009	-67.493018	9.379007
51435		0.752107	-0.351290	-0.519977	-0.201379	-56.337750	-67.464525	9.371738
51436		0.752165	-0.351449	-0.519794	-0.201359	-56.349008	-67.439756	9.368422
51437		0.752203	-0.351645	-0.519599	-0.201376	-56.364478	-67.415594	9.362546
51438		0.752215	-0.351828	-0.519434	-0.201437	-56.377785	-67.397812	9.352280
51439		0.752208	-0.352033	-0.519257	-0.201563	-56.388014	-67.382454	9.331404
51440		0.752184	-0.352227	-0.519115	-0.201679	-56.402631	-67.370828	9.317064
51441		0.752138	-0.352416	-0.518986	-0.201853	-56.412626	-67.364395	9.293780
51442		0.752094	-0.352560	-0.518903	-0.201980	-56.423549	-67.360889	9.279976
51443		0.752060	-0.352656	-0.518839	-0.202104	-56.425354	-67.360067	9.261821
51444		0.752030	-0.352691	-0.518832	-0.202171	-56.426811	-67.363109	9.254354
51445		0.752011	-0.352715	-0.518818	-0.202235	-56.424258	-67.365224	9.244058
51446		0.751991	-0.352726	-0.518827	-0.202270	-56.425186	-67.368344	9.241126
51447		0.751945	-0.352763	-0.518822	-0.202387	-56.422664	-67.374774	9.225298
51448		0.751887	-0.352792	-0.518841	-0.202503	-56.422358	-67.384023	9.212683
51449		0.751796	-0.352864	-0.518843	-0.202711	-56.421216	-67.396559	9.187454
51450		0.751695	-0.352906	-0.518872	-0.202936	-56.415342	-67.413731	9.158963
51451		0.751590	-0.352938	-0.518895	-0.203212	-56.400185	-67.433494	9.117783
51452		0.751477	-0.352919	-0.518976	-0.203456	-56.385220	-67.458825	9.084730
51453		0.751382	-0.352860	-0.519049	-0.203723	-56.355371	-67.485080	9.038384
51454		0.751309	-0.352742	-0.519160	-0.203914	-56.323913	-67.511617	9.002649
51455		0.751225	-0.352622	-0.519277	-0.204133	-56.290643	-67.540732	8.962958
51456		0.751151	-0.352481	-0.519413	-0.204302	-56.259813	-67.569097	8.932115
51457		0.751062	-0.352387	-0.519524	-0.204507	-56.233458	-67.596350	8.898056
51458		0.750952	-0.352313	-0.519672	-0.204662	-56.224634	-67.624488	8.884349
51459		0.750849	-0.352249	-0.519804	-0.204820	-56.214938	-67.650719	8.868531
51460		0.750773	-0.352156	-0.519939	-0.204913	-56.205079	-67.673615	8.860618
51461		0.750700	-0.352040	-0.520087	-0.205004	-56.191100	-67.698191	8.851079
51462		0.750658	-0.351910	-0.520227	-0.205027	-56.178797	-67.717676	8.850095
51463		0.750616	-0.351779	-0.520350	-0.205093	-56.158735	-67.737924	8.837607
51464		0.750570	-0.351652	-0.520479	-0.205151	-56.141751	-67.758281	8.828635
51465		0.750519	-0.351564	-0.520576	-0.205244	-56.125927	-67.776639	8.813951
51466		0.750465	-0.351481	-0.520672	-0.205340	-56.110818	-67.795083	8.799252
51467		0.750384	-0.351453	-0.520747	-0.205493	-56.101125	-67.814030	8.779881
51468		0.750333	-0.351368	-0.520829	-0.205618	-56.079867	-67.832472	8.756627
51469		0.750270	-0.351341	-0.520880	-0.205760	-56.067202	-67.847946	8.734809
51470		0.750233	-0.351252	-0.520962	-0.205841	-56.049250	-67.863752	8.718978
51471		0.750180	-0.351224	-0.521028	-0.205916	-56.046093	-67.876584	8.712692
51472		0.750147	-0.351194	-0.521090	-0.205931	-56.047583	-67.885144	8.716333
51473		0.750124	-0.351184	-0.521129	-0.205933	-56.051912	-67.890004	8.721781
51474		0.750118	-0.351188	-0.521164	-0.205862	-56.066904	-67.889624	8.742756
51475		0.750116	-0.351253	-0.521148	-0.205793	-56.089452	-67.882697	8.765013
51476		0.750099	-0.351364	-0.521135	-0.205702	-56.127230	-67.874012	8.800298
51477		0.750062	-0.351536	-0.521086	-0.205668	-56.168930	-67.864129	8.828718
51478		0.750031	-0.351727	-0.521026	-0.205605	-56.217414	-67.850740	8.864517
51479		0.750014	-0.351911	-0.520935	-0.205582	-56.253484	-67.836409	8.884880
51480		0.749995	-0.352064	-0.520876	-0.205539	-56.289324	-67.824904	8.909824
51481		0.749968	-0.352219	-0.520818	-0.205519	-56.323463	-67.814986	8.930903
51482		0.749961	-0.352324	-0.520785	-0.205449	-56.353514	-67.805398	8.956959
51483		0.749956	-0.352425	-0.520753	-0.205375	-56.382852	-67.795712	8.983042
51484		0.749957	-0.352494	-0.520754	-0.205251	-56.414873	-67.787108	9.019285
51485		0.749955	-0.352556	-0.520751	-0.205158	-56.441286	-67.780110	9.047793
51486		0.749946	-0.352665	-0.520739	-0.205036	-56.481581	-67.769584	9.088471
51487		0.749934	-0.352754	-0.520739	-0.204929	-56.516996	-67.761669	9.124813
51488		0.749922	-0.352837	-0.520746	-0.204809	-56.553799	-67.753862	9.164297
51489		0.749897	-0.352954	-0.520737	-0.204720	-56.593363	-67.745784	9.200602
51490		0.749868	-0.353057	-0.520744	-0.204631	-56.632291	-67.739661	9.237709
51491		0.749841	-0.353180	-0.520730	-0.204554	-56.671483	-67.731536	9.272042
51492		0.749825	-0.353247	-0.520744	-0.204461	-56.702171	-67.726418	9.304651
51493		0.749811	-0.353317	-0.520742	-0.204397	-56.727617	-67.721156	9.329089
51494		0.749786	-0.353372	-0.520781	-0.204297	-56.760235	-67.718709	9.365632
51495		0.749764	-0.353397	-0.520820	-0.204233	-56.780832	-67.718870	9.389690
51496		0.749760	-0.353374	-0.520891	-0.204106	-56.801124	-67.719346	9.423553
51497		0.749750	-0.353361	-0.520953	-0.204007	-56.819488	-67.720527	9.452066
51498		0.749743	-0.353325	-0.521037	-0.203882	-56.838044	-67.722814	9.485392
51499		0.749724	-0.353321	-0.521100	-0.203798	-56.857483	-67.724859	9.512970
51500		0.749714	-0.353296	-0.521163	-0.203714	-56.871188	-67.727131	9.536678
51501		0.749688	-0.353303	-0.521217	-0.203661	-56.888928	-67.730037	9.558822
51502		0.749654	-0.353310	-0.521268	-0.203646	-56.901809	-67.734877	9.572877
51503		0.749624	-0.353349	-0.521273	-0.203675	-56.910615	-67.736881	9.575712
51504		0.749594	-0.353366	-0.521290	-0.203710	-56.914931	-67.740854	9.575623
51505		0.749557	-0.353398	-0.521292	-0.203783	-56.916854	-67.745460	9.568437
51506		0.749534	-0.353398	-0.521305	-0.203837	-56.913827	-67.750411	9.561040
51507		0.749523	-0.353379	-0.521305	-0.203911	-56.900903	-67.755343	9.543520
51508		0.749507	-0.353353	-0.521327	-0.203958	-56.893130	-67.761280	9.534475
51509		0.749507	-0.353309	-0.521336	-0.204010	-56.877321	-67.766290	9.518311
51510		0.749509	-0.353273	-0.521353	-0.204026	-56.868967	-67.769600	9.512097
51511		0.749492	-0.353255	-0.521359	-0.204101	-56.857351	-67.775390	9.495791
51512		0.749470	-0.353263	-0.521361	-0.204161	-56.854039	-67.779430	9.486657
51513		0.749439	-0.353312	-0.521327	-0.204279	-56.848871	-67.782310	9.466722
51514		0.749404	-0.353356	-0.521304	-0.204390	-56.845330	-67.786249	9.449592
51515		0.749374	-0.353414	-0.521255	-0.204522	-56.838663	-67.788243	9.425877
51516		0.749384	-0.353396	-0.521224	-0.204601	-56.819529	-67.789785	9.401501
51517		0.749397	-0.353376	-0.521178	-0.204702	-56.794908	-67.791191	9.369642
51518		0.749428	-0.353321	-0.521147	-0.204761	-56.768106	-67.791981	9.342498
51519		0.749445	-0.353312	-0.521092	-0.204856	-56.745237	-67.791670	9.311849
51520		0.749439	-0.353339	-0.521040	-0.204964	-56.731681	-67.792156	9.286249
51521		0.749427	-0.353400	-0.520952	-0.205129	-56.714890	-67.791568	9.248986
51522		0.749404	-0.353469	-0.520874	-0.205291	-56.702653	-67.791919	9.215943
51523		0.749363	-0.353568	-0.520790	-0.205479	-56.694865	-67.792942	9.182337
51524		0.749326	-0.353661	-0.520724	-0.205623	-56.693349	-67.793177	9.159436
51525		0.749315	-0.353711	-0.520656	-0.205748	-56.681407	-67.792561	9.131624
51526		0.749325	-0.353728	-0.520609	-0.205803	-56.671476	-67.790400	9.115126
51527		0.749335	-0.353723	-0.520582	-0.205844	-56.660771	-67.789936	9.101025
51528		0.749349	-0.353711	-0.520568	-0.205848	-56.654430	-67.788730	9.095332
51529		0.749358	-0.353732	-0.520532	-0.205869	-56.651363	-67.785523	9.088176
51530		0.749361	-0.353754	-0.520508	-0.205883	-56.651328	-67.783309	9.084693
51531		0.749336	-0.353838	-0.520463	-0.205942	-56.660246	-67.780794	9.080528
51532		0.749314	-0.353888	-0.520435	-0.206009	-56.661579	-67.781147	9.071300
51533		0.749265	-0.354000	-0.520380	-0.206130	-56.669879	-67.781096	9.058512
51534		0.749221	-0.354107	-0.520337	-0.206219	-56.682161	-67.780358	9.053144
51535		0.749174	-0.354190	-0.520291	-0.206362	-56.681478	-67.783133	9.032297
51536		0.749143	-0.354222	-0.520278	-0.206454	-56.678583	-67.787092	9.018531
51537		0.749107	-0.354243	-0.520277	-0.206547	-56.674676	-67.792749	9.004884
51538		0.749076	-0.354227	-0.520312	-0.206599	-56.671601	-67.800388	8.999091
51539		0.749037	-0.354232	-0.520338	-0.206669	-56.670570	-67.807788	8.991915
51540		0.749005	-0.354215	-0.520398	-0.206660	-56.678215	-67.814511	9.002568
51541		0.748970	-0.354213	-0.520442	-0.206682	-56.683554	-67.821062	9.006685
51542		0.748935	-0.354205	-0.520519	-0.206629	-56.701223	-67.826837	9.030383
51543		0.748904	-0.354252	-0.520548	-0.206586	-56.724202	-67.826985	9.052998
51544		0.748885	-0.354281	-0.520583	-0.206519	-56.745689	-67.826435	9.077827
51545		0.748861	-0.354344	-0.520594	-0.206470	-56.770308	-67.823745	9.100982
51546		0.748845	-0.354410	-0.520590	-0.206423	-56.792655	-67.819538	9.121222
51547		0.748828	-0.354460	-0.520578	-0.206429	-56.803564	-67.817938	9.126950
51548		0.748798	-0.354534	-0.520566	-0.206442	-56.820357	-67.816386	9.135815
51549		0.748774	-0.354568	-0.520551	-0.206507	-56.820559	-67.818420	9.127198
51550		0.748758	-0.354583	-0.520542	-0.206561	-56.817393	-67.820669	9.118018
51551		0.748743	-0.354575	-0.520537	-0.206645	-56.805430	-67.825480	9.099560
51552		0.748739	-0.354542	-0.520554	-0.206673	-56.796576	-67.829660	9.091589
51553		0.748734	-0.354544	-0.520549	-0.206701	-56.793397	-67.830904	9.085745
51554		0.748737	-0.354549	-0.520548	-0.206684	-56.796233	-67.829614	9.089642
51555		0.748720	-0.354612	-0.520521	-0.206705	-56.806477	-67.827078	9.092065
51556		0.748698	-0.354694	-0.520503	-0.206687	-56.827743	-67.822826	9.107166
51557		0.748668	-0.354824	-0.520445	-0.206720	-56.849289	-67.816517	9.113372
51558		0.748643	-0.354907	-0.520425	-0.206721	-56.868175	-67.813158	9.124487
51559		0.748620	-0.354997	-0.520395	-0.206723	-56.887475	-67.808778	9.134989
51560		0.748610	-0.355016	-0.520401	-0.206709	-56.895218	-67.808306	9.142247
51561		0.748619	-0.354998	-0.520395	-0.206723	-56.887485	-67.808782	9.134961
51562		0.748638	-0.354953	-0.520405	-0.206708	-56.878556	-67.809460	9.131576
51563		0.748636	-0.354934	-0.520403	-0.206756	-56.867883	-67.812514	9.118538
51564		0.748631	-0.354911	-0.520413	-0.206784	-56.860693	-67.815774	9.111132
51565		0.748602	-0.354940	-0.520400	-0.206873	-56.857087	-67.819667	9.097233
51566		0.748587	-0.354933	-0.520405	-0.206926	-56.850629	-67.823765	9.086954
51567		0.748562	-0.354964	-0.520385	-0.207014	-56.846458	-67.826694	9.072265
51568		0.748531	-0.354982	-0.520388	-0.207090	-56.844192	-67.831585	9.061929
51569		0.748500	-0.355015	-0.520370	-0.207188	-56.840126	-67.835404	9.046381
51570		0.748477	-0.355027	-0.520365	-0.207263	-56.834487	-67.839444	9.033220
51571		0.748443	-0.355076	-0.520347	-0.207349	-56.835850	-67.842280	9.022590
51572		0.748390	-0.355127	-0.520357	-0.207429	-56.843507	-67.847919	9.018991
51573		0.748333	-0.355180	-0.520362	-0.207529	-56.848991	-67.854288	9.011176
51574		0.748296	-0.355213	-0.520376	-0.207571	-56.856373	-67.858208	9.012159
51575		0.748227	-0.355285	-0.520398	-0.207640	-56.873540	-67.864453	9.017056
51576		0.748163	-0.355352	-0.520420	-0.207699	-56.890411	-67.870001	9.023088
51577		0.748090	-0.355413	-0.520453	-0.207777	-56.905351	-67.878082	9.026220
51578		0.748027	-0.355439	-0.520507	-0.207827	-56.917556	-67.887308	9.032329
51579		0.747961	-0.355465	-0.520554	-0.207900	-56.926141	-67.897231	9.032839
51580		0.747883	-0.355483	-0.520625	-0.207972	-56.937615	-67.910023	9.037264
51581		0.747795	-0.355500	-0.520694	-0.208089	-56.943122	-67.925419	9.032039
51582		0.747732	-0.355485	-0.520767	-0.208153	-56.946467	-67.938345	9.031975
51583		0.747638	-0.355530	-0.520836	-0.208247	-56.962276	-67.951810	9.036458
51584		0.747546	-0.355574	-0.520907	-0.208322	-56.980368	-67.964498	9.044866
51585		0.747448	-0.355643	-0.520966	-0.208407	-57.001957	-67.976094	9.053550
51586		0.747356	-0.355702	-0.521040	-0.208452	-57.027963	-67.986921	9.071091
51587		0.747271	-0.355771	-0.521094	-0.208503	-57.052461	-67.995736	9.085506
51588		0.747199	-0.355805	-0.521173	-0.208507	-57.076677	-68.004865	9.107109
51589		0.747125	-0.355850	-0.521238	-0.208536	-57.098383	-68.013755	9.122908
51590		0.747047	-0.355875	-0.521325	-0.208552	-57.120526	-68.024686	9.142285
51591		0.746976	-0.355937	-0.521363	-0.208604	-57.139851	-68.031777	9.151854
51592		0.746894	-0.356002	-0.521410	-0.208671	-57.159976	-68.040845	9.160909
51593		0.746807	-0.356099	-0.521415	-0.208805	-57.174274	-68.048849	9.155032
51594		0.746718	-0.356186	-0.521431	-0.208932	-57.188689	-68.057897	9.150921
51595		0.746627	-0.356315	-0.521414	-0.209081	-57.206001	-68.063912	9.143524
51596		0.746572	-0.356385	-0.521403	-0.209186	-57.212682	-68.068629	9.134818
51597		0.746513	-0.356462	-0.521393	-0.209290	-57.221599	-68.073166	9.127827
51598		0.746480	-0.356520	-0.521376	-0.209351	-57.228187	-68.074367	9.123679
51599		0.746432	-0.356600	-0.521365	-0.209414	-57.241870	-68.076158	9.124702
51600		0.746401	-0.356657	-0.521362	-0.209435	-57.255093	-68.076428	9.130850
51601		0.746358	-0.356744	-0.521344	-0.209484	-57.270915	-68.076477	9.134313
51602		0.746328	-0.356810	-0.521330	-0.209512	-57.283850	-68.075840	9.138723
51603		0.746292	-0.356888	-0.521304	-0.209574	-57.294153	-68.075885	9.136482
51604		0.746278	-0.356945	-0.521270	-0.209611	-57.299895	-68.073549	9.133437
51605		0.746261	-0.356992	-0.521245	-0.209655	-57.303566	-68.072906	9.128798
51606		0.746255	-0.357002	-0.521234	-0.209685	-57.301256	-68.073407	9.122984
51607		0.746261	-0.357030	-0.521196	-0.209710	-57.299057	-68.070239	9.115686
51608		0.746280	-0.357033	-0.521158	-0.209733	-57.290104	-68.067261	9.104116
51609		0.746286	-0.357065	-0.521106	-0.209785	-57.283798	-68.064096	9.090004
51610		0.746302	-0.357095	-0.521049	-0.209818	-57.277766	-68.059256	9.077812
51611		0.746303	-0.357153	-0.520978	-0.209894	-57.272353	-68.055046	9.059930
51612		0.746303	-0.357208	-0.520918	-0.209950	-57.270542	-68.050999	9.047720
51613		0.746300	-0.357269	-0.520859	-0.210003	-57.270779	-68.046691	9.037255
51614		0.746310	-0.357279	-0.520829	-0.210026	-57.265244	-68.044556	9.028559
51615		0.746324	-0.357332	-0.520763	-0.210049	-57.265042	-68.037690	9.020913
51616		0.746353	-0.357338	-0.520724	-0.210032	-57.260978	-68.032007	9.017339
51617		0.746383	-0.357353	-0.520676	-0.210019	-57.257352	-68.025298	9.013014
51618		0.746425	-0.357338	-0.520647	-0.209967	-57.252936	-68.018783	9.014036
51619		0.746457	-0.357351	-0.520597	-0.209957	-57.247845	-68.012001	9.008093
51620		0.746486	-0.357353	-0.520566	-0.209925	-57.246084	-68.006310	9.008527
51621		0.746510	-0.357370	-0.520528	-0.209905	-57.245518	-68.000334	9.007737
51622		0.746552	-0.357351	-0.520490	-0.209884	-57.234866	-67.994760	9.000213
51623		0.746586	-0.357357	-0.520442	-0.209868	-57.229131	-67.988068	8.994758
51624		0.746641	-0.357320	-0.520406	-0.209829	-57.215833	-67.981671	8.987834
51625		0.746698	-0.357305	-0.520335	-0.209825	-57.198494	-67.973295	8.971450
51626		0.746759	-0.357288	-0.520271	-0.209796	-57.184734	-67.964190	8.961067
51627		0.746823	-0.357298	-0.520176	-0.209786	-57.170222	-67.952188	8.945487
51628		0.746886	-0.357295	-0.520100	-0.209754	-57.158212	-67.941263	8.935662
51629		0.746948	-0.357351	-0.519976	-0.209745	-57.150942	-67.925576	8.922819
51630		0.747015	-0.357400	-0.519865	-0.209703	-57.147615	-67.909145	8.917448
51631		0.747075	-0.357466	-0.519742	-0.209680	-57.145123	-67.892497	8.909582
51632		0.747134	-0.357527	-0.519636	-0.209629	-57.147184	-67.876001	8.909313
51633		0.747200	-0.357581	-0.519511	-0.209609	-57.140451	-67.859467	8.898008
51634		0.747271	-0.357597	-0.519423	-0.209547	-57.134588	-67.844909	8.895000
51635		0.747327	-0.357606	-0.519358	-0.209493	-57.130359	-67.833668	8.893919
51636		0.747396	-0.357579	-0.519295	-0.209448	-57.115591	-67.823708	8.884788
51637		0.747448	-0.357557	-0.519253	-0.209404	-57.106051	-67.816213	8.880572
51638		0.747493	-0.357533	-0.519208	-0.209395	-57.091673	-67.810671	8.868626
51639		0.747521	-0.357528	-0.519168	-0.209405	-57.081869	-67.806673	8.858065
51640		0.747533	-0.357514	-0.519149	-0.209434	-57.071240	-67.806396	8.846115
51641		0.747535	-0.357486	-0.519143	-0.209489	-57.056672	-67.809593	8.829318
51642		0.747546	-0.357436	-0.519150	-0.209520	-57.041032	-67.812980	8.815743
51643		0.747552	-0.357385	-0.519144	-0.209599	-57.017589	-67.818062	8.790203
51644		0.747558	-0.357312	-0.519175	-0.209626	-57.000470	-67.824170	8.777795
51645		0.747561	-0.357241	-0.519201	-0.209671	-56.980952	-67.830975	8.761163
51646		0.747577	-0.357144	-0.519246	-0.209666	-56.963352	-67.837148	8.753326
51647		0.747583	-0.357101	-0.519264	-0.209673	-56.953884	-67.840237	8.747410
51648		0.747588	-0.357065	-0.519283	-0.209670	-56.947863	-67.842642	8.745124
51649		0.747592	-0.357057	-0.519277	-0.209685	-56.942980	-67.843002	8.739631
51650		0.747601	-0.357055	-0.519266	-0.209686	-56.940074	-67.841758	8.736719
51651		0.747596	-0.357068	-0.519243	-0.209736	-56.934322	-67.842136	8.725355
51652		0.747601	-0.357069	-0.519221	-0.209771	-56.926772	-67.841791	8.714489
51653		0.747614	-0.357058	-0.519194	-0.209813	-56.914412	-67.841344	8.699298
51654		0.747632	-0.357015	-0.519178	-0.209859	-56.894732	-67.842949	8.679431
51655		0.747654	-0.356981	-0.519141	-0.209929	-56.871122	-67.843521	8.652659
51656		0.747677	-0.356926	-0.519117	-0.210003	-56.843686	-67.846074	8.623723
51657		0.747696	-0.356882	-0.519082	-0.210096	-56.815527	-67.848413	8.591307
51658		0.747708	-0.356859	-0.519043	-0.210186	-56.792465	-67.849963	8.562303
51659		0.747702	-0.356893	-0.518988	-0.210287	-56.781000	-67.849437	8.538642
51660		0.747699	-0.356937	-0.518932	-0.210361	-56.775298	-67.847182	8.522029
51661		0.747690	-0.357014	-0.518861	-0.210439	-56.775093	-67.842891	8.507486
51662		0.747691	-0.357045	-0.518841	-0.210432	-56.780876	-67.839744	8.510777
51663		0.747696	-0.357078	-0.518812	-0.210427	-56.784986	-67.835662	8.511986
51664		0.747718	-0.357052	-0.518819	-0.210378	-56.784004	-67.833590	8.517653
51665		0.747743	-0.357025	-0.518815	-0.210345	-56.779311	-67.831363	8.518126
51666		0.747769	-0.356969	-0.518837	-0.210292	-56.773476	-67.831164	8.522132
51667		0.747800	-0.356933	-0.518825	-0.210273	-56.762997	-67.828977	8.516468
51668		0.747816	-0.356923	-0.518817	-0.210253	-56.760926	-67.826864	8.516994
51669		0.747799	-0.356967	-0.518796	-0.210288	-56.765543	-67.826150	8.514314
51670		0.747790	-0.357003	-0.518778	-0.210306	-56.770395	-67.824762	8.514168
51671		0.747787	-0.357029	-0.518754	-0.210331	-56.770440	-67.823200	8.509502
51672		0.747803	-0.357027	-0.518748	-0.210295	-56.772291	-67.820164	8.514558
51673		0.747816	-0.357020	-0.518748	-0.210257	-56.774627	-67.817885	8.520661
51674		0.747848	-0.356990	-0.518753	-0.210183	-56.774559	-67.814054	8.529752
51675		0.747871	-0.357000	-0.518738	-0.210121	-56.781124	-67.808157	8.540418
51676		0.747883	-0.357026	-0.518742	-0.210027	-56.798537	-67.802324	8.563567
51677		0.747882	-0.357108	-0.518696	-0.210002	-56.815390	-67.794403	8.574518
51678		0.747867	-0.357201	-0.518676	-0.209947	-56.842993	-67.787443	8.598067
51679		0.747844	-0.357346	-0.518618	-0.209925	-56.874628	-67.777537	8.617689
51680		0.747834	-0.357451	-0.518582	-0.209874	-56.902022	-67.768767	8.639484
51681		0.747825	-0.357557	-0.518533	-0.209844	-56.925328	-67.759921	8.655052
51682		0.747829	-0.357631	-0.518502	-0.209780	-56.946498	-67.751261	8.674619
51683		0.747843	-0.357691	-0.518462	-0.209727	-56.961034	-67.742559	8.687694
51684		0.747858	-0.357712	-0.518459	-0.209646	-56.974532	-67.736739	8.706226
51685		0.747876	-0.357747	-0.518444	-0.209558	-56.990355	-67.728941	8.726102
51686		0.747873	-0.357792	-0.518450	-0.209477	-57.012177	-67.723888	8.750771
51687		0.747855	-0.357864	-0.518446	-0.209428	-57.036468	-67.719446	8.772491
51688		0.747850	-0.357904	-0.518454	-0.209356	-57.056280	-67.715298	8.794894
51689		0.747837	-0.357967	-0.518448	-0.209311	-57.077171	-67.710951	8.813781
51690		0.747829	-0.358014	-0.518455	-0.209242	-57.098509	-67.706767	8.836713
51691		0.747827	-0.358056	-0.518446	-0.209201	-57.112407	-67.702530	8.850110
51692		0.747823	-0.358112	-0.518445	-0.209120	-57.135792	-67.696533	8.875250
51693		0.747813	-0.358172	-0.518431	-0.209089	-57.152910	-67.692265	8.889364
51694		0.747818	-0.358216	-0.518413	-0.209039	-57.166787	-67.686359	8.903227
51695		0.747809	-0.358289	-0.518379	-0.209032	-57.181252	-67.681093	8.911295
51696		0.747799	-0.358364	-0.518355	-0.208995	-57.201281	-67.675060	8.927317
51697		0.747784	-0.358445	-0.518330	-0.208976	-57.220572	-67.669830	8.940592
51698		0.747764	-0.358521	-0.518316	-0.208948	-57.241963	-67.665551	8.957174
51699		0.747740	-0.358591	-0.518305	-0.208943	-57.259654	-67.663041	8.968834
51700		0.747732	-0.358634	-0.518302	-0.208905	-57.274790	-67.659779	8.983253
51701		0.747713	-0.358688	-0.518309	-0.208863	-57.295272	-67.657178	9.002373
51702		0.747698	-0.358706	-0.518335	-0.208824	-57.308906	-67.657533	9.018029
51703		0.747683	-0.358734	-0.518349	-0.208793	-57.322382	-67.656848	9.031691
51704		0.747676	-0.358744	-0.518368	-0.208754	-57.332656	-67.656359	9.044536
51705		0.747661	-0.358778	-0.518371	-0.208741	-57.343908	-67.655612	9.053798
51706		0.747645	-0.358790	-0.518388	-0.208733	-57.351432	-67.656911	9.061027
51707		0.747610	-0.358830	-0.518399	-0.208766	-57.360854	-67.659778	9.064125
51708		0.747573	-0.358873	-0.518405	-0.208809	-57.369901	-67.662758	9.065664
51709		0.747550	-0.358882	-0.518407	-0.208868	-57.366810	-67.666750	9.056691
51710		0.747514	-0.358894	-0.518435	-0.208909	-57.371013	-67.672510	9.056674
51711		0.747487	-0.358898	-0.518452	-0.208956	-57.370731	-67.677420	9.052165
51712		0.747462	-0.358883	-0.518492	-0.208972	-57.372560	-67.683267	9.054477
51713		0.747452	-0.358862	-0.518515	-0.208986	-57.369724	-67.687240	9.052588
51714		0.747441	-0.358842	-0.518556	-0.208958	-57.374735	-67.690413	9.062202
51715		0.747430	-0.358840	-0.518573	-0.208959	-57.377390	-67.692481	9.065177
51716		0.747406	-0.358860	-0.518598	-0.208951	-57.388292	-67.694617	9.075238
51717		0.747382	-0.358857	-0.518625	-0.208976	-57.389915	-67.699423	9.075283
51718		0.747363	-0.358869	-0.518639	-0.208986	-57.395128	-67.701626	9.078592
51719		0.747337	-0.358890	-0.518645	-0.209027	-57.397869	-67.704708	9.076107
51720		0.747322	-0.358890	-0.518651	-0.209065	-57.395419	-67.707896	9.070433
51721		0.747308	-0.358904	-0.518642	-0.209116	-57.392210	-67.709984	9.061545
51722		0.747299	-0.358900	-0.518644	-0.209148	-57.388287	-67.712310	9.055300
51723		0.747277	-0.358907	-0.518653	-0.209193	-57.387359	-67.716232	9.049994
51724		0.747274	-0.358887	-0.518670	-0.209197	-57.384501	-67.718589	9.048872
51725		0.747258	-0.358900	-0.518673	-0.209224	-57.385919	-67.720593	9.046775
51726		0.747261	-0.358882	-0.518697	-0.209184	-57.389616	-67.721115	9.055781
51727		0.747241	-0.358913	-0.518707	-0.209176	-57.400926	-67.721334	9.064989
51728		0.747242	-0.358911	-0.518720	-0.209146	-57.405882	-67.720918	9.072806
51729		0.747237	-0.358937	-0.518710	-0.209145	-57.411395	-67.719377	9.075982
51730		0.747228	-0.358956	-0.518716	-0.209131	-57.419081	-67.718883	9.083179
51731		0.747219	-0.358989	-0.518701	-0.209140	-57.424421	-67.717404	9.084546
51732		0.747226	-0.359007	-0.518687	-0.209120	-57.428876	-67.714283	9.088864
51733		0.747228	-0.359059	-0.518644	-0.209129	-57.434075	-67.709117	9.088052
51734		0.747237	-0.359099	-0.518618	-0.209092	-57.444075	-67.703233	9.097333
51735		0.747239	-0.359152	-0.518581	-0.209090	-57.451705	-67.698068	9.099918
51736		0.747235	-0.359206	-0.518562	-0.209055	-57.466607	-67.692988	9.112555
51737		0.747231	-0.359266	-0.518533	-0.209038	-57.479363	-67.687809	9.121074
51738		0.747223	-0.359308	-0.518531	-0.209000	-57.494470	-67.684524	9.135465
51739		0.747227	-0.359352	-0.518505	-0.208975	-57.504157	-67.679376	9.142934
51740		0.747210	-0.359387	-0.518508	-0.208968	-57.514909	-67.678811	9.151200
51741		0.747200	-0.359450	-0.518479	-0.208965	-57.527258	-67.674529	9.157663
51742		0.747184	-0.359495	-0.518475	-0.208958	-57.539614	-67.673035	9.166438
51743		0.747178	-0.359539	-0.518455	-0.208951	-57.548735	-67.669679	9.171997
51744		0.747181	-0.359562	-0.518448	-0.208918	-57.556950	-67.666507	9.180784
51745		0.747173	-0.359602	-0.518435	-0.208912	-57.566025	-67.664068	9.186584
51746		0.747164	-0.359617	-0.518449	-0.208883	-57.575935	-67.663553	9.197713
51747		0.747151	-0.359640	-0.518449	-0.208891	-57.581431	-67.663855	9.200454
51748		0.747126	-0.359681	-0.518460	-0.208883	-57.595543	-67.664120	9.211535
51749		0.747091	-0.359703	-0.518475	-0.208932	-57.599612	-67.668830	9.209687
51750		0.747052	-0.359697	-0.518524	-0.208960	-57.604459	-67.676394	9.213212
51751		0.747004	-0.359707	-0.518562	-0.209022	-57.608241	-67.684668	9.211158
51752		0.746966	-0.359669	-0.518631	-0.209048	-57.608278	-67.695019	9.213161
51753		0.746928	-0.359625	-0.518704	-0.209082	-57.606389	-67.706196	9.213208
51754		0.746898	-0.359557	-0.518791	-0.209086	-57.603987	-67.717529	9.217575
51755		0.746872	-0.359493	-0.518873	-0.209088	-57.601775	-67.727929	9.221864
51756		0.746843	-0.359427	-0.518978	-0.209045	-57.607748	-67.738284	9.238636
51757		0.746821	-0.359411	-0.519028	-0.209025	-57.614801	-67.743012	9.249374
51758		0.746794	-0.359387	-0.519108	-0.208966	-57.629534	-67.748737	9.272133
51759		0.746775	-0.359386	-0.519145	-0.208944	-57.638308	-67.751677	9.283317
51760		0.746757	-0.359389	-0.519184	-0.208907	-57.650324	-67.753822	9.298554
51761		0.746753	-0.359392	-0.519190	-0.208901	-57.653099	-67.754143	9.301656
51762		0.746756	-0.359389	-0.519188	-0.208899	-57.651989	-67.753788	9.300991
51763		0.746748	-0.359399	-0.519175	-0.208943	-57.647943	-67.755032	9.292182
51764		0.746760	-0.359384	-0.519156	-0.208972	-57.637328	-67.754809	9.280236
51765		0.746776	-0.359338	-0.519127	-0.209068	-57.609381	-67.758225	9.247996
51766		0.746797	-0.359313	-0.519090	-0.209128	-57.589255	-67.758128	9.224766
51767		0.746813	-0.359302	-0.519041	-0.209211	-57.568605	-67.757919	9.197567
51768		0.746841	-0.359269	-0.519008	-0.209249	-57.549257	-67.756941	9.177725
51769		0.746876	-0.359263	-0.518950	-0.209281	-57.533257	-67.752220	9.158941
51770		0.746920	-0.359249	-0.518898	-0.209273	-57.520367	-67.745807	9.147391
51771		0.746962	-0.359275	-0.518820	-0.209274	-57.512534	-67.736420	9.136360
51772		0.747004	-0.359289	-0.518766	-0.209230	-57.510893	-67.727164	9.136544
51773		0.747045	-0.359345	-0.518694	-0.209169	-57.518494	-67.714046	9.143495
51774		0.747100	-0.359353	-0.518635	-0.209106	-57.515790	-67.703047	9.144774
51775		0.747145	-0.359407	-0.518541	-0.209085	-57.514998	-67.689985	9.139903
51776		0.747193	-0.359449	-0.518462	-0.209036	-57.516694	-67.677083	9.141039
51777		0.747233	-0.359507	-0.518367	-0.209029	-57.515419	-67.664805	9.133991
51778		0.747276	-0.359545	-0.518288	-0.209008	-57.512846	-67.653732	9.128990
51779		0.747318	-0.359583	-0.518190	-0.209032	-57.502465	-67.643410	9.111974
51780		0.747376	-0.359597	-0.518117	-0.208983	-57.497588	-67.631533	9.109280
51781		0.747427	-0.359609	-0.518048	-0.208951	-57.490947	-67.621295	9.103538
51782		0.747494	-0.359584	-0.517989	-0.208900	-57.477902	-67.611369	9.096514
51783		0.747545	-0.359572	-0.517928	-0.208893	-57.463719	-67.603888	9.083420
51784		0.747589	-0.359573	-0.517878	-0.208855	-57.458596	-67.595588	9.080871
51785		0.747614	-0.359619	-0.517812	-0.208848	-57.459563	-67.586964	9.077509
51786		0.747636	-0.359685	-0.517749	-0.208815	-57.469104	-67.576585	9.083144
51787		0.747646	-0.359777	-0.517679	-0.208793	-57.483352	-67.565917	9.090109
51788		0.747679	-0.359859	-0.517614	-0.208695	-57.503302	-67.550964	9.110157
51789		0.747718	-0.359922	-0.517553	-0.208599	-57.518837	-67.536838	9.127463
51790		0.747775	-0.359949	-0.517508	-0.208456	-57.532095	-67.522085	9.149884
51791		0.747825	-0.359999	-0.517449	-0.208339	-57.546262	-67.507060	9.168742
51792		0.747877	-0.360028	-0.517406	-0.208209	-57.559062	-67.493189	9.189451
51793		0.747907	-0.360082	-0.517351	-0.208143	-57.570225	-67.481877	9.200749
51794		0.747930	-0.360123	-0.517310	-0.208093	-57.578699	-67.473337	9.209226
51795		0.747935	-0.360167	-0.517278	-0.208080	-57.585772	-67.468143	9.213096
51796		0.747960	-0.360174	-0.517254	-0.208035	-57.587589	-67.462418	9.217849
51797		0.747993	-0.360139	-0.517249	-0.207990	-57.581820	-67.459399	9.218950
51798		0.748047	-0.360065	-0.517254	-0.207912	-57.570073	-67.455794	9.220685
51799		0.748093	-0.360029	-0.517246	-0.207829	-57.566710	-67.449956	9.227597
51800		0.748141	-0.359983	-0.517247	-0.207733	-57.563758	-67.444414	9.237006
51801		0.748189	-0.359975	-0.517211	-0.207666	-57.561638	-67.435930	9.240910
51802		0.748228	-0.359980	-0.517179	-0.207593	-57.564296	-67.427543	9.248932
51803		0.748258	-0.360023	-0.517118	-0.207565	-57.567311	-67.418009	9.249850
51804		0.748291	-0.360059	-0.517075	-0.207490	-57.576532	-67.407699	9.261600
51805		0.748335	-0.360072	-0.517017	-0.207451	-57.572909	-67.398325	9.259500
51806		0.748387	-0.360032	-0.517004	-0.207368	-57.567787	-67.391908	9.264938
51807		0.748445	-0.359993	-0.516971	-0.207305	-57.557263	-67.384511	9.262955
51808		0.748515	-0.359918	-0.516957	-0.207221	-57.542290	-67.378293	9.261836
51809		0.748575	-0.359877	-0.516916	-0.207175	-57.528176	-67.371019	9.254980
51810		0.748645	-0.359809	-0.516885	-0.207122	-57.508805	-67.364834	9.246042
51811		0.748720	-0.359765	-0.516816	-0.207096	-57.486652	-67.355740	9.229355
51812		0.748774	-0.359716	-0.516787	-0.207057	-57.471821	-67.350338	9.222052
51813		0.748836	-0.359698	-0.516724	-0.207023	-57.458380	-67.341056	9.212429
51814		0.748898	-0.359645	-0.516690	-0.206977	-57.442090	-67.334795	9.204576
51815		0.748968	-0.359583	-0.516650	-0.206926	-57.423050	-67.327637	9.195050
51816		0.749044	-0.359510	-0.516615	-0.206867	-57.402247	-67.320590	9.185596
51817		0.749104	-0.359459	-0.516566	-0.206863	-57.379712	-67.315212	9.167534
51818		0.749160	-0.359418	-0.516508	-0.206877	-57.356469	-67.309870	9.146332
51819		0.749208	-0.359391	-0.516435	-0.206932	-57.330282	-67.305179	9.117180
51820		0.749252	-0.359339	-0.516389	-0.206979	-57.302752	-67.303441	9.090003
51821		0.749300	-0.359296	-0.516316	-0.207060	-57.269517	-67.300637	9.053022
51822		0.749362	-0.359219	-0.516261	-0.207107	-57.233761	-67.298146	9.019818
51823		0.749416	-0.359137	-0.516203	-0.207198	-57.191975	-67.298241	8.977152
51824		0.749483	-0.359043	-0.516145	-0.207262	-57.149050	-67.296727	8.936814
51825		0.749538	-0.358949	-0.516094	-0.207354	-57.105127	-67.297685	8.893161
51826		0.749586	-0.358880	-0.516030	-0.207459	-57.064117	-67.297829	8.848854
51827		0.749617	-0.358842	-0.515954	-0.207603	-57.025556	-67.298573	8.800852
51828		0.749644	-0.358773	-0.515919	-0.207711	-56.989487	-67.302196	8.761576
51829		0.749660	-0.358745	-0.515852	-0.207869	-56.953928	-67.304746	8.714471
51830		0.749705	-0.358636	-0.515806	-0.208007	-56.901998	-67.309454	8.660309
51831		0.749734	-0.358545	-0.515760	-0.208171	-56.852541	-67.315679	8.604784
51832		0.749774	-0.358412	-0.515731	-0.208330	-56.794969	-67.323993	8.545657
51833		0.749804	-0.358266	-0.515702	-0.208542	-56.728747	-67.335793	8.474462
51834		0.749836	-0.358098	-0.515684	-0.208762	-56.657474	-67.349530	8.399730
51835		0.749858	-0.357955	-0.515650	-0.209012	-56.587166	-67.363103	8.320929
51836		0.749887	-0.357825	-0.515605	-0.209243	-56.520248	-67.373983	8.245914
51837		0.749922	-0.357693	-0.515545	-0.209489	-56.448356	-67.383971	8.164485
51838		0.749949	-0.357565	-0.515504	-0.209713	-56.383160	-67.394774	8.091558
51839		0.749974	-0.357493	-0.515421	-0.209951	-56.324382	-67.400904	8.018283
51840		0.750011	-0.357409	-0.515347	-0.210143	-56.268483	-67.405306	7.953052
51841		0.750032	-0.357357	-0.515267	-0.210351	-56.218836	-67.409599	7.889694
51842		0.750064	-0.357310	-0.515179	-0.210531	-56.171562	-67.411176	7.830508
51843		0.750090	-0.357272	-0.515082	-0.210742	-56.122137	-67.413368	7.765657
51844		0.750116	-0.357236	-0.514999	-0.210913	-56.080121	-67.414867	7.711439
51845		0.750144	-0.357196	-0.514917	-0.211082	-56.037138	-67.416244	7.656954
51846		0.750194	-0.357136	-0.514831	-0.211216	-55.991530	-67.415153	7.604579
51847		0.750237	-0.357073	-0.514751	-0.211366	-55.944495	-67.415775	7.549723
51848		0.750284	-0.357014	-0.514680	-0.211472	-55.904852	-67.414659	7.505729
51849		0.750326	-0.356977	-0.514594	-0.211592	-55.867110	-67.412445	7.460224
51850		0.750376	-0.356939	-0.514511	-0.211680	-55.833126	-67.408595	7.421309
51851		0.750412	-0.356951	-0.514408	-0.211783	-55.807157	-67.402694	7.384438
51852		0.750457	-0.356958	-0.514312	-0.211845	-55.785797	-67.395167	7.356170
51853		0.750510	-0.356982	-0.514187	-0.211919	-55.762635	-67.384781	7.323231
51854		0.750548	-0.357009	-0.514098	-0.211956	-55.750456	-67.376319	7.304458
51855		0.750581	-0.357070	-0.513980	-0.212022	-55.739648	-67.365825	7.281180
51856		0.750633	-0.357093	-0.513892	-0.212016	-55.730758	-67.354743	7.269827
51857		0.750672	-0.357132	-0.513802	-0.212025	-55.724948	-67.344347	7.258633
51858		0.750714	-0.357153	-0.513732	-0.212012	-55.719554	-67.335047	7.251672
51859		0.750750	-0.357202	-0.513636	-0.212036	-55.713510	-67.324571	7.238067
51860		0.750772	-0.357250	-0.513578	-0.212018	-55.718190	-67.316084	7.239324
51861		0.750789	-0.357296	-0.513513	-0.212037	-55.717246	-67.309149	7.231866
51862		0.750793	-0.357338	-0.513488	-0.212012	-55.727011	-67.304229	7.239644
51863		0.750795	-0.357392	-0.513442	-0.212025	-55.732497	-67.299119	7.238546
51864		0.750792	-0.357428	-0.513429	-0.212006	-55.742003	-67.295984	7.246254
51865		0.750785	-0.357470	-0.513409	-0.212011	-55.749316	-67.293543	7.249104
51866		0.750771	-0.357496	-0.513425	-0.211978	-55.762505	-67.293103	7.262839
51867		0.750765	-0.357516	-0.513432	-0.211946	-55.772552	-67.291729	7.273796
51868		0.750743	-0.357532	-0.513479	-0.211882	-55.791753	-67.293107	7.297501
51869		0.750734	-0.357577	-0.513510	-0.211768	-55.821071	-67.289082	7.332786
51870		0.750723	-0.357593	-0.513564	-0.211648	-55.847231	-67.287823	7.368289
51871		0.750703	-0.357646	-0.513603	-0.211532	-55.880328	-67.284605	7.406757
51872		0.750683	-0.357687	-0.513660	-0.211397	-55.915238	-67.282374	7.449972
51873		0.750650	-0.357752	-0.513698	-0.211311	-55.948795	-67.280802	7.485296
51874		0.750618	-0.357782	-0.513766	-0.211209	-55.979166	-67.282117	7.522293
51875		0.750587	-0.357809	-0.513813	-0.211159	-56.000013	-67.284246	7.545361
51876		0.750558	-0.357789	-0.513896	-0.211094	-56.015919	-67.290130	7.569611
51877		0.750525	-0.357759	-0.513970	-0.211083	-56.021984	-67.298503	7.580055
51878		0.750503	-0.357719	-0.514046	-0.211042	-56.028806	-67.305333	7.594908
51879		0.750476	-0.357687	-0.514114	-0.211028	-56.033433	-67.312843	7.604372
51880		0.750453	-0.357649	-0.514194	-0.210981	-56.042131	-67.319665	7.621455
51881		0.750412	-0.357645	-0.514276	-0.210929	-56.061101	-67.326161	7.645952
51882		0.750378	-0.357643	-0.514363	-0.210845	-56.084297	-67.331092	7.677459
51883		0.750333	-0.357655	-0.514450	-0.210774	-56.110431	-67.336690	7.709472
51884		0.750300	-0.357654	-0.514542	-0.210665	-56.137826	-67.340720	7.747149
51885		0.750265	-0.357671	-0.514622	-0.210564	-56.167021	-67.343634	7.784142
51886		0.750232	-0.357651	-0.514732	-0.210449	-56.193025	-67.349486	7.822981
51887		0.750219	-0.357609	-0.514819	-0.210355	-56.206644	-67.354322	7.849362
51888		0.750205	-0.357551	-0.514924	-0.210244	-56.220934	-67.360311	7.879443
51889		0.750190	-0.357522	-0.514998	-0.210166	-56.234134	-67.364341	7.902766
51890		0.750170	-0.357502	-0.515074	-0.210085	-56.250702	-67.368423	7.928860
51891		0.750149	-0.357498	-0.515133	-0.210022	-56.266746	-67.371393	7.951142
51892		0.750127	-0.357478	-0.515221	-0.209919	-56.287399	-67.375466	7.983389
51893		0.750110	-0.357425	-0.515310	-0.209851	-56.295913	-67.382143	8.003375
51894		0.750137	-0.357311	-0.515416	-0.209690	-56.300474	-67.385689	8.033194
51895		0.750175	-0.357160	-0.515518	-0.209559	-56.290941	-67.390989	8.049648
51896		0.750217	-0.356994	-0.515644	-0.209383	-56.286092	-67.396509	8.076279
51897		0.750259	-0.356840	-0.515755	-0.209221	-56.280544	-67.400978	8.099782
51898		0.750294	-0.356708	-0.515861	-0.209059	-56.280153	-67.404604	8.126322
51899		0.750314	-0.356636	-0.515925	-0.208953	-56.282950	-67.406110	8.145350
51900		0.750320	-0.356596	-0.515995	-0.208824	-56.297872	-67.406723	8.175522
51901		0.750304	-0.356613	-0.516033	-0.208761	-56.315850	-67.406943	8.197772
51902		0.750271	-0.356660	-0.516077	-0.208691	-56.343591	-67.407208	8.227648
51903		0.750238	-0.356735	-0.516085	-0.208663	-56.368406	-67.405500	8.248032
51904		0.750215	-0.356772	-0.516118	-0.208599	-56.390957	-67.404922	8.272920
51905		0.750188	-0.356815	-0.516138	-0.208572	-56.409020	-67.405109	8.289637
51906		0.750167	-0.356822	-0.516184	-0.208523	-56.424485	-67.407300	8.309023
51907		0.750133	-0.356823	-0.516237	-0.208511	-56.435484	-67.412842	8.321577
51908		0.750115	-0.356818	-0.516275	-0.208489	-56.443381	-67.415982	8.332071
51909		0.750074	-0.356809	-0.516331	-0.208516	-56.448343	-67.424354	8.336214
51910		0.750042	-0.356788	-0.516382	-0.208537	-56.449848	-67.431990	8.338366
51911		0.749995	-0.356822	-0.516414	-0.208571	-56.461297	-67.437555	8.344180
51912		0.749945	-0.356837	-0.516467	-0.208594	-56.472706	-67.445029	8.352927
51913		0.749885	-0.356870	-0.516508	-0.208654	-56.483216	-67.453280	8.355704
51914		0.749824	-0.356908	-0.516557	-0.208686	-56.499251	-67.460654	8.366065
51915		0.749758	-0.356954	-0.516596	-0.208748	-56.512610	-67.468698	8.370324
51916		0.749702	-0.356952	-0.516667	-0.208775	-56.522245	-67.478885	8.378588
51917		0.749646	-0.356959	-0.516723	-0.208828	-56.529086	-67.488766	8.380977
51918		0.749595	-0.356943	-0.516801	-0.208842	-56.537532	-67.499004	8.390416
51919		0.749531	-0.356923	-0.516885	-0.208899	-56.541716	-67.512700	8.392458
51920		0.749469	-0.356897	-0.516973	-0.208947	-56.545729	-67.526528	8.395778
51921		0.749406	-0.356875	-0.517057	-0.209006	-56.548964	-67.540331	8.396863
51922		0.749329	-0.356885	-0.517124	-0.209099	-56.554702	-67.554024	8.394464
51923		0.749229	-0.356928	-0.517185	-0.209232	-56.564280	-67.569236	8.389487
51924		0.749142	-0.356956	-0.517235	-0.209372	-56.566675	-67.583771	8.378053
51925		0.749055	-0.356987	-0.517277	-0.209526	-56.567291	-67.598159	8.363122
51926		0.748972	-0.357014	-0.517329	-0.209647	-56.571989	-67.611802	8.355613
51927		0.748883	-0.357039	-0.517379	-0.209799	-56.572453	-67.627154	8.341408
51928		0.748802	-0.357050	-0.517444	-0.209911	-56.575852	-67.641744	8.335063
51929		0.748723	-0.357061	-0.517502	-0.210031	-56.577322	-67.656203	8.325902
51930		0.748641	-0.357052	-0.517584	-0.210136	-56.579338	-67.672633	8.320731
51931		0.748561	-0.357045	-0.517654	-0.210263	-56.577229	-67.689036	8.309194
51932		0.748482	-0.357028	-0.517737	-0.210364	-56.577684	-67.705501	8.303470
51933		0.748392	-0.357047	-0.517815	-0.210464	-56.586851	-67.720897	8.303228
51934		0.748310	-0.357030	-0.517896	-0.210584	-56.584960	-67.738256	8.293545
51935		0.748233	-0.357025	-0.517961	-0.210704	-56.583301	-67.753654	8.282844
51936		0.748157	-0.356988	-0.518047	-0.210826	-56.576293	-67.771990	8.269797
51937		0.748087	-0.356962	-0.518111	-0.210960	-56.567219	-67.788472	8.252324
51938		0.748029	-0.356908	-0.518190	-0.211066	-56.555693	-67.805118	8.237580
51939		0.747979	-0.356862	-0.518243	-0.211190	-56.540033	-67.819834	8.216164
51940		0.747918	-0.356801	-0.518336	-0.211284	-56.530636	-67.837375	8.205362
51941		0.747874	-0.356767	-0.518380	-0.211384	-56.519072	-67.849423	8.188825
51942		0.747825	-0.356721	-0.518453	-0.211460	-56.511923	-67.863370	8.180241
51943		0.747776	-0.356685	-0.518508	-0.211556	-56.502210	-67.876386	8.166203
51944		0.747746	-0.356630	-0.518563	-0.211622	-56.490289	-67.887728	8.154209
51945		0.747703	-0.356614	-0.518592	-0.211726	-56.480567	-67.898025	8.137438
51946		0.747672	-0.356574	-0.518632	-0.211809	-56.467995	-67.908435	8.121984
51947		0.747631	-0.356566	-0.518651	-0.211918	-56.457962	-67.917760	8.103563
51948		0.747608	-0.356525	-0.518667	-0.212032	-56.437423	-67.927312	8.077272
51949		0.747585	-0.356494	-0.518674	-0.212147	-56.418449	-67.935838	8.051452
51950		0.747569	-0.356472	-0.518677	-0.212231	-56.404024	-67.941765	8.031950
51951		0.747552	-0.356445	-0.518688	-0.212312	-56.389954	-67.948556	8.013620
51952		0.747548	-0.356401	-0.518713	-0.212339	-56.379339	-67.953663	8.004972
51953		0.747546	-0.356366	-0.518727	-0.212371	-56.368876	-67.957763	7.995135
51954		0.747546	-0.356315	-0.518770	-0.212348	-56.365205	-67.961991	7.998467
51955		0.747548	-0.356267	-0.518804	-0.212340	-56.359086	-67.965993	7.997765
51956		0.747554	-0.356219	-0.518856	-0.212274	-56.362105	-67.968430	8.011371
51957		0.747562	-0.356178	-0.518875	-0.212268	-56.354983	-67.970694	8.008671
51958		0.747554	-0.356165	-0.518901	-0.212253	-56.357753	-67.973006	8.014238
51959		0.747549	-0.356132	-0.518928	-0.212262	-56.352489	-67.977090	8.011412
51960		0.747544	-0.356125	-0.518940	-0.212260	-56.353072	-67.978502	8.012982
51961		0.747528	-0.356155	-0.518934	-0.212281	-56.358177	-67.978729	8.013462
51962		0.747528	-0.356167	-0.518931	-0.212267	-56.362541	-67.977411	8.017872
51963		0.747527	-0.356202	-0.518914	-0.212252	-56.370725	-67.974061	8.023967
51964		0.747542	-0.356199	-0.518919	-0.212194	-56.376730	-67.971028	8.035255
51965		0.747563	-0.356202	-0.518916	-0.212122	-56.384594	-67.966023	8.048842
51966		0.747573	-0.356199	-0.518948	-0.212015	-56.400926	-67.962956	8.074944
51967		0.747579	-0.356241	-0.518942	-0.211937	-56.419576	-67.956823	8.096346
51968		0.747580	-0.356262	-0.518958	-0.211861	-56.436368	-67.953664	8.117833
51969		0.747574	-0.356302	-0.518957	-0.211816	-56.451995	-67.950291	8.133595
51970		0.747564	-0.356324	-0.518983	-0.211750	-56.470150	-67.948884	8.155636
51971		0.747565	-0.356337	-0.518999	-0.211686	-56.483376	-67.946443	8.173241
51972		0.747565	-0.356328	-0.519039	-0.211602	-56.497110	-67.946045	8.195331
51973		0.747575	-0.356311	-0.519067	-0.211526	-56.505479	-67.944642	8.211978
51974		0.747574	-0.356312	-0.519101	-0.211443	-56.520859	-67.943312	8.234614
51975		0.747570	-0.356317	-0.519125	-0.211392	-56.532039	-67.942767	8.249938
51976		0.747562	-0.356338	-0.519147	-0.211331	-56.548254	-67.941365	8.269689
51977		0.747528	-0.356385	-0.519172	-0.211311	-56.568173	-67.942382	8.287266
51978		0.747504	-0.356409	-0.519205	-0.211271	-56.585324	-67.943609	8.305882
51979		0.747465	-0.356428	-0.519254	-0.211258	-56.601171	-67.948251	8.321662
51980		0.747428	-0.356429	-0.519318	-0.211230	-56.616341	-67.953982	8.339786
51981		0.747388	-0.356395	-0.519389	-0.211252	-56.617990	-67.964247	8.343361
51982		0.747355	-0.356329	-0.519492	-0.211228	-56.621375	-67.975572	8.355955
51983		0.747329	-0.356272	-0.519581	-0.211201	-56.624884	-67.984933	8.367773
51984		0.747303	-0.356184	-0.519703	-0.211139	-56.629727	-67.996327	8.387263
51985		0.747281	-0.356103	-0.519814	-0.211081	-56.634234	-68.006709	8.405206
51986		0.747260	-0.356034	-0.519921	-0.211007	-56.642835	-68.015365	8.427516
51987		0.747231	-0.356010	-0.519990	-0.210982	-56.651458	-68.022106	8.441178
51988		0.747192	-0.355993	-0.520074	-0.210941	-56.667256	-68.029654	8.462849
51989		0.747154	-0.355980	-0.520139	-0.210936	-56.676464	-68.037150	8.474286
51990		0.747109	-0.355962	-0.520216	-0.210938	-56.685610	-68.046508	8.485715
51991		0.747073	-0.355926	-0.520291	-0.210939	-56.689592	-68.055809	8.493639
51992		0.747042	-0.355857	-0.520390	-0.210921	-56.691122	-68.067154	8.504031
51993		0.747028	-0.355778	-0.520470	-0.210909	-56.685283	-68.076713	8.507235
51994		0.747022	-0.355674	-0.520573	-0.210853	-56.681439	-68.086447	8.518798
51995		0.747019	-0.355605	-0.520643	-0.210805	-56.680713	-68.092404	8.529118
51996		0.747001	-0.355564	-0.520722	-0.210744	-56.690467	-68.098302	8.548575
51997		0.746977	-0.355557	-0.520779	-0.210696	-56.704530	-68.102093	8.567900
51998		0.746946	-0.355575	-0.520825	-0.210663	-56.721644	-68.105085	8.586682
51999		0.746908	-0.355633	-0.520846	-0.210648	-56.743291	-68.106024	8.604538
52000		0.746874	-0.355677	-0.520884	-0.210603	-56.767570	-68.107107	8.628992
52001		0.746848	-0.355705	-0.520922	-0.210554	-56.787935	-68.108074	8.651387
52002		0.746834	-0.355724	-0.520954	-0.210490	-56.806092	-68.107509	8.673544
52003		0.746827	-0.355752	-0.520971	-0.210426	-56.823828	-68.105025	8.694311
52004		0.746816	-0.355769	-0.520999	-0.210368	-56.840047	-68.104477	8.714175
52005		0.746799	-0.355827	-0.521010	-0.210303	-56.865033	-68.100930	8.739509
52006		0.746784	-0.355889	-0.521014	-0.210241	-56.889732	-68.096621	8.763802
52007		0.746750	-0.355971	-0.521010	-0.210233	-56.912854	-68.094774	8.780114
52008		0.746714	-0.356029	-0.521033	-0.210204	-56.936463	-68.094904	8.801083
52009		0.746676	-0.356086	-0.521059	-0.210180	-56.959746	-68.095676	8.821518
52010		0.746642	-0.356100	-0.521110	-0.210149	-56.976817	-68.099535	8.840358
52011		0.746612	-0.356121	-0.521146	-0.210131	-56.991426	-68.102355	8.854964
52012		0.746565	-0.356142	-0.521214	-0.210097	-57.013808	-68.107914	8.879019
52013		0.746513	-0.356155	-0.521288	-0.210075	-57.033967	-68.115048	8.900583
52014		0.746445	-0.356199	-0.521358	-0.210066	-57.060584	-68.122259	8.924694
52015		0.746378	-0.356265	-0.521413	-0.210059	-57.090376	-68.127421	8.949619
52016		0.746317	-0.356322	-0.521473	-0.210029	-57.121076	-68.131888	8.978234
52017		0.746248	-0.356376	-0.521545	-0.210002	-57.152917	-68.137915	9.008196
52018		0.746183	-0.356410	-0.521628	-0.209968	-57.182261	-68.145110	9.038116
52019		0.746099	-0.356463	-0.521705	-0.209987	-57.210016	-68.154783	9.060217
52020		0.746007	-0.356503	-0.521810	-0.209983	-57.241887	-68.166351	9.089784
52021		0.745912	-0.356527	-0.521920	-0.210009	-57.267160	-68.180595	9.111789
52022		0.745800	-0.356566	-0.522035	-0.210055	-57.295773	-68.196618	9.134150
52023		0.745681	-0.356582	-0.522165	-0.210126	-57.318120	-68.216240	9.150258
52024		0.745563	-0.356582	-0.522313	-0.210176	-57.341816	-68.236859	9.171211
52025		0.745444	-0.356589	-0.522454	-0.210236	-57.365046	-68.257256	9.190167
52026		0.745330	-0.356588	-0.522605	-0.210268	-57.391189	-68.276958	9.215192
52027		0.745201	-0.356614	-0.522746	-0.210330	-57.419629	-68.297265	9.237397
52028		0.745075	-0.356666	-0.522880	-0.210357	-57.457790	-68.314005	9.269843
52029		0.744929	-0.356725	-0.523022	-0.210420	-57.495888	-68.334091	9.298713
52030		0.744793	-0.356795	-0.523156	-0.210447	-57.539261	-68.350702	9.334728
52031		0.744643	-0.356869	-0.523301	-0.210495	-57.583673	-68.369805	9.369692
52032		0.744486	-0.356956	-0.523439	-0.210557	-57.629434	-68.388977	9.403670
52033		0.744333	-0.357039	-0.523570	-0.210631	-57.671194	-68.408011	9.432819
52034		0.744176	-0.357099	-0.523725	-0.210700	-57.711837	-68.429973	9.463635
52035		0.744023	-0.357157	-0.523860	-0.210805	-57.744164	-68.451893	9.483165
52036		0.743867	-0.357203	-0.524019	-0.210880	-57.781344	-68.474817	9.511273
52037		0.743716	-0.357236	-0.524176	-0.210968	-57.812922	-68.498485	9.533934
52038		0.743569	-0.357265	-0.524335	-0.211043	-57.845085	-68.521522	9.558683
52039		0.743418	-0.357309	-0.524483	-0.211135	-57.877757	-68.544288	9.581087
52040		0.743267	-0.357356	-0.524633	-0.211213	-57.913235	-68.566332	9.607056
52041		0.743104	-0.357423	-0.524773	-0.211325	-57.948996	-68.589099	9.628633
52042		0.742949	-0.357492	-0.524906	-0.211423	-57.985427	-68.610176	9.651741
52043		0.742794	-0.357568	-0.525026	-0.211542	-58.018892	-68.631038	9.669328
52044		0.742640	-0.357638	-0.525147	-0.211662	-58.051065	-68.652173	9.686115
52045		0.742477	-0.357726	-0.525252	-0.211827	-58.080231	-68.674127	9.694327
52046		0.742328	-0.357789	-0.525363	-0.211965	-58.106524	-68.695371	9.704172
52047		0.742187	-0.357868	-0.525450	-0.212109	-58.132011	-68.713872	9.711078
52048		0.742054	-0.357942	-0.525535	-0.212242	-58.156478	-68.731568	9.718345
52049		0.741911	-0.358060	-0.525590	-0.212407	-58.184492	-68.747226	9.722122
52050		0.741779	-0.358188	-0.525642	-0.212523	-58.219517	-68.759285	9.736059
52051		0.741641	-0.358361	-0.525666	-0.212651	-58.261095	-68.768262	9.751171
52052		0.741536	-0.358514	-0.525672	-0.212745	-58.296348	-68.773145	9.764537
52053		0.741435	-0.358680	-0.525675	-0.212814	-58.337330	-68.775773	9.784494
52054		0.741359	-0.358842	-0.525664	-0.212829	-58.380347	-68.773383	9.811326
52055		0.741289	-0.359023	-0.525644	-0.212818	-58.429321	-68.767954	9.844502
52056		0.741240	-0.359184	-0.525622	-0.212771	-58.476005	-68.760151	9.880189
52057		0.741193	-0.359360	-0.525596	-0.212704	-58.528048	-68.750311	9.921552
52058		0.741155	-0.359554	-0.525548	-0.212624	-58.582295	-68.736934	9.964274
52059		0.741115	-0.359770	-0.525483	-0.212562	-58.637099	-68.722383	10.003944
52060		0.741092	-0.359971	-0.525417	-0.212462	-58.691643	-68.705398	10.047924
52061		0.741065	-0.360199	-0.525331	-0.212386	-58.746922	-68.687241	10.087869
52062		0.741058	-0.360388	-0.525253	-0.212280	-58.796147	-68.668579	10.127981
52063		0.741062	-0.360540	-0.525182	-0.212182	-58.835021	-68.651832	10.160618
52064		0.741078	-0.360676	-0.525112	-0.212071	-58.870627	-68.634431	10.192504
52065		0.741089	-0.360820	-0.525029	-0.211993	-58.902766	-68.617740	10.217128
52066		0.741096	-0.360948	-0.524964	-0.211913	-58.933925	-68.603106	10.242797
52067		0.741107	-0.361064	-0.524888	-0.211863	-58.956521	-68.589387	10.258248
52068		0.741122	-0.361157	-0.524831	-0.211790	-58.978925	-68.576782	10.277651
52069		0.741137	-0.361239	-0.524774	-0.211743	-58.995146	-68.565854	10.289870
52070		0.741161	-0.361269	-0.524740	-0.211693	-59.001747	-68.558163	10.297542
52071		0.741181	-0.361307	-0.524703	-0.211647	-59.009788	-68.550343	10.305693
52072		0.741226	-0.361282	-0.524688	-0.211571	-59.007295	-68.543847	10.311733
52073		0.741271	-0.361253	-0.524666	-0.211515	-59.000091	-68.538038	10.311684
52074		0.741286	-0.361275	-0.524637	-0.211496	-59.002368	-68.533129	10.313258
52075		0.741282	-0.361341	-0.524581	-0.211540	-59.005007	-68.528622	10.305610
52076		0.741264	-0.361395	-0.524534	-0.211627	-59.001848	-68.528224	10.289660
52077		0.741228	-0.361480	-0.524477	-0.211747	-59.002502	-68.528431	10.271723
52078		0.741214	-0.361519	-0.524431	-0.211846	-58.993832	-68.529074	10.250647
52079		0.741197	-0.361529	-0.524396	-0.211972	-58.976696	-68.533249	10.221605
52080		0.741191	-0.361492	-0.524390	-0.212072	-58.955014	-68.539654	10.194763
52081		0.741189	-0.361430	-0.524392	-0.212180	-58.926635	-68.547836	10.162893
52082		0.741172	-0.361354	-0.524428	-0.212280	-58.902152	-68.559707	10.137210
52083		0.741132	-0.361309	-0.524459	-0.212419	-58.881506	-68.573116	10.109296
52084		0.741078	-0.361299	-0.524488	-0.212552	-58.871199	-68.585441	10.088887
52085		0.741012	-0.361263	-0.524532	-0.212738	-58.850971	-68.603246	10.056592
52086		0.740940	-0.361226	-0.524608	-0.212862	-58.843365	-68.620904	10.042562
52087		0.740872	-0.361162	-0.524698	-0.212985	-58.830856	-68.640325	10.026394
52088		0.740822	-0.361049	-0.524825	-0.213036	-58.819629	-68.659987	10.022455
52089		0.740769	-0.360923	-0.524970	-0.213078	-58.809140	-68.681280	10.021467
52090		0.740732	-0.360745	-0.525148	-0.213070	-58.795492	-68.703795	10.026562
52091		0.740680	-0.360582	-0.525327	-0.213084	-58.784315	-68.727798	10.030929
52092		0.740621	-0.360457	-0.525497	-0.213081	-58.784166	-68.749041	10.044143
52093		0.740546	-0.360331	-0.525675	-0.213116	-58.781125	-68.773694	10.051391
52094		0.740482	-0.360214	-0.525855	-0.213094	-58.786975	-68.794803	10.071682
52095		0.740403	-0.360139	-0.526020	-0.213087	-58.800646	-68.814483	10.094416
52096		0.740340	-0.360045	-0.526192	-0.213041	-58.814140	-68.832718	10.122127
52097		0.740290	-0.359968	-0.526335	-0.212990	-58.826957	-68.847096	10.147695
52098		0.740242	-0.359888	-0.526490	-0.212908	-58.844917	-68.860756	10.181445
52099		0.740203	-0.359805	-0.526633	-0.212832	-58.858632	-68.873453	10.210728
52100		0.740183	-0.359702	-0.526761	-0.212756	-58.863833	-68.884757	10.232992
52101		0.740142	-0.359637	-0.526886	-0.212700	-58.876800	-68.896484	10.257873
52102		0.740108	-0.359539	-0.527014	-0.212668	-58.878810	-68.910517	10.272818
52103		0.740078	-0.359482	-0.527098	-0.212662	-58.880603	-68.920760	10.281196
52104		0.740045	-0.359416	-0.527190	-0.212659	-58.880988	-68.932092	10.288777
52105		0.740015	-0.359368	-0.527265	-0.212659	-58.883063	-68.941411	10.295961
52106		0.739999	-0.359317	-0.527339	-0.212620	-58.887864	-68.948169	10.309527
52107		0.739991	-0.359290	-0.527383	-0.212581	-58.893579	-68.951073	10.321396
52108		0.739977	-0.359268	-0.527447	-0.212509	-58.908011	-68.954002	10.344620
52109		0.739967	-0.359301	-0.527470	-0.212431	-58.930714	-68.951053	10.371114
52110		0.739962	-0.359328	-0.527496	-0.212336	-58.953922	-68.947451	10.400119
52111		0.739948	-0.359372	-0.527506	-0.212285	-58.973972	-68.944652	10.420565
52112		0.739945	-0.359400	-0.527521	-0.212213	-58.992739	-68.941139	10.443053
52113		0.739954	-0.359422	-0.527511	-0.212169	-59.001415	-68.936802	10.453321
52114		0.739953	-0.359433	-0.527520	-0.212134	-59.010152	-68.935327	10.464190
52115		0.739952	-0.359454	-0.527503	-0.212144	-59.011400	-68.933738	10.462479
52116		0.739923	-0.359506	-0.527503	-0.212156	-59.025338	-68.933840	10.470665
52117		0.739907	-0.359543	-0.527478	-0.212211	-59.025100	-68.934077	10.462040
52118		0.739877	-0.359597	-0.527453	-0.212286	-59.027793	-68.935318	10.453209
52119		0.739859	-0.359661	-0.527405	-0.212359	-59.028399	-68.933736	10.441350
52120		0.739846	-0.359697	-0.527384	-0.212396	-59.030689	-68.933243	10.436995
52121		0.739831	-0.359737	-0.527364	-0.212427	-59.034922	-68.932485	10.434662
52122		0.739815	-0.359782	-0.527360	-0.212420	-59.047643	-68.930848	10.443789
52123		0.739783	-0.359860	-0.527353	-0.212416	-59.069206	-68.928696	10.458594
52124		0.739768	-0.359918	-0.527347	-0.212384	-59.087915	-68.925113	10.474584
52125		0.739722	-0.360046	-0.527328	-0.212379	-59.121277	-68.920674	10.496502
52126		0.739680	-0.360135	-0.527338	-0.212348	-59.152411	-68.918516	10.522192
52127		0.739636	-0.360264	-0.527313	-0.212341	-59.185369	-68.913387	10.543707
52128		0.739600	-0.360357	-0.527306	-0.212329	-59.212053	-68.910426	10.562770
52129		0.739563	-0.360455	-0.527288	-0.212333	-59.236220	-68.907267	10.577439
52130		0.739542	-0.360530	-0.527268	-0.212330	-59.253666	-68.903668	10.588088
52131		0.739504	-0.360633	-0.527245	-0.212344	-59.277287	-68.900438	10.600781
52132		0.739478	-0.360703	-0.527224	-0.212369	-59.290351	-68.898735	10.605174
52133		0.739425	-0.360832	-0.527187	-0.212427	-59.314009	-68.896394	10.611679
52134		0.739368	-0.360944	-0.527173	-0.212471	-59.338694	-68.896110	10.622251
52135		0.739309	-0.361077	-0.527136	-0.212542	-59.362037	-68.894668	10.626963
52136		0.739259	-0.361170	-0.527132	-0.212564	-59.385932	-68.894434	10.640467
52137		0.739222	-0.361254	-0.527116	-0.212592	-59.404046	-68.893197	10.648302
52138		0.739189	-0.361308	-0.527132	-0.212576	-59.424367	-68.893119	10.665312
52139		0.739160	-0.361368	-0.527136	-0.212563	-59.444106	-68.891929	10.680654
52140		0.739126	-0.361431	-0.527156	-0.212525	-59.470402	-68.890786	10.704616
52141		0.739104	-0.361487	-0.527150	-0.212519	-59.486049	-68.888886	10.715464
52142		0.739078	-0.361561	-0.527139	-0.212513	-59.505468	-68.886113	10.728551
52143		0.739037	-0.361644	-0.527121	-0.212558	-59.521265	-68.885935	10.732758
52144		0.739014	-0.361720	-0.527087	-0.212596	-59.531865	-68.883385	10.732872
52145		0.738993	-0.361796	-0.527039	-0.212655	-59.537916	-68.880739	10.726396
52146		0.738970	-0.361872	-0.527005	-0.212693	-59.548512	-68.878189	10.726507
52147		0.738950	-0.361947	-0.526959	-0.212747	-59.555106	-68.875488	10.721082
52148		0.738915	-0.362054	-0.526921	-0.212780	-59.574449	-68.871768	10.727556
52149		0.738894	-0.362137	-0.526877	-0.212823	-59.584608	-68.868279	10.725959
52150		0.738867	-0.362202	-0.526847	-0.212879	-59.591260	-68.867634	10.721610
52151		0.738849	-0.362272	-0.526806	-0.212925	-59.598253	-68.864980	10.717907
52152		0.738832	-0.362305	-0.526791	-0.212964	-59.600560	-68.865392	10.713674
52153		0.738824	-0.362344	-0.526758	-0.213008	-59.600237	-68.863993	10.705745
52154		0.738816	-0.362367	-0.526743	-0.213032	-59.601324	-68.863562	10.702551
52155		0.738811	-0.362395	-0.526720	-0.213058	-59.601897	-68.862184	10.698130
52156		0.738807	-0.362403	-0.526706	-0.213094	-59.597426	-68.862815	10.689760
52157		0.738788	-0.362463	-0.526675	-0.213135	-59.604316	-68.861142	10.687333
52158		0.738773	-0.362495	-0.526674	-0.213133	-59.613395	-68.860486	10.693567
52159		0.738759	-0.362517	-0.526656	-0.213189	-59.610195	-68.861814	10.683459
52160		0.738758	-0.362516	-0.526655	-0.213200	-59.608533	-68.862386	10.680975
52161		0.738755	-0.362512	-0.526651	-0.213223	-59.604199	-68.863640	10.675007
52162		0.738760	-0.362476	-0.526671	-0.213220	-59.598224	-68.866164	10.672771
52163		0.738772	-0.362427	-0.526689	-0.213216	-59.588568	-68.868750	10.668067
52164		0.738784	-0.362376	-0.526711	-0.213207	-59.579403	-68.871383	10.664641
52165		0.738796	-0.362331	-0.526721	-0.213218	-59.567203	-68.873912	10.655733
52166		0.738811	-0.362286	-0.526729	-0.213222	-59.555598	-68.875706	10.648049
52167		0.738827	-0.362256	-0.526724	-0.213232	-59.544857	-68.876248	10.639170
52168		0.738834	-0.362240	-0.526714	-0.213258	-59.535596	-68.877039	10.629011
52169		0.738829	-0.362248	-0.526691	-0.213319	-59.526668	-68.878446	10.613916
52170		0.738837	-0.362234	-0.526669	-0.213368	-59.512999	-68.879348	10.597272
52171		0.738835	-0.362235	-0.526642	-0.213440	-59.500122	-68.881023	10.577880
52172		0.738842	-0.362207	-0.526622	-0.213512	-59.480499	-68.883878	10.554408
52173		0.738847	-0.362192	-0.526605	-0.213562	-59.467479	-68.885542	10.538430
52174		0.738863	-0.362132	-0.526611	-0.213596	-59.447904	-68.889339	10.521543
52175		0.738885	-0.362076	-0.526611	-0.213613	-59.430136	-68.891210	10.507412
52176		0.738908	-0.362013	-0.526630	-0.213594	-59.417728	-68.893048	10.502644
52177		0.738922	-0.361961	-0.526645	-0.213595	-59.405919	-68.895581	10.495620
52178		0.738929	-0.361931	-0.526662	-0.213583	-59.401891	-68.897151	10.495590
52179		0.738920	-0.361938	-0.526660	-0.213605	-59.401208	-68.898297	10.492329
52180		0.738904	-0.361957	-0.526660	-0.213629	-59.404344	-68.899601	10.491743
52181		0.738882	-0.361980	-0.526664	-0.213656	-59.409059	-68.901608	10.492090
52182		0.738855	-0.362008	-0.526675	-0.213673	-59.417821	-68.903647	10.496949
52183		0.738842	-0.361985	-0.526696	-0.213707	-59.412039	-68.908583	10.490581
52184		0.738826	-0.361963	-0.526728	-0.213722	-59.410891	-68.913632	10.490476
52185		0.738814	-0.361957	-0.526738	-0.213749	-59.408688	-68.916630	10.486635
52186		0.738794	-0.361943	-0.526769	-0.213767	-59.409135	-68.921625	10.487125
52187		0.738752	-0.361957	-0.526795	-0.213820	-59.413451	-68.928046	10.485953
52188		0.738714	-0.361955	-0.526824	-0.213885	-59.412337	-68.935732	10.479749
52189		0.738653	-0.362021	-0.526834	-0.213961	-59.425800	-68.941003	10.480783
52190		0.738609	-0.362026	-0.526872	-0.214008	-59.430707	-68.948528	10.481678
52191		0.738562	-0.362059	-0.526896	-0.214057	-59.440304	-68.954053	10.484295
52192		0.738515	-0.362076	-0.526943	-0.214075	-59.453226	-68.960464	10.494538
52193		0.738468	-0.362085	-0.526992	-0.214099	-59.464014	-68.967693	10.502942
52194		0.738423	-0.362086	-0.527051	-0.214108	-59.475787	-68.975052	10.514499
52195		0.738355	-0.362110	-0.527113	-0.214152	-59.491471	-68.984760	10.524841
52196		0.738306	-0.362106	-0.527159	-0.214210	-59.494443	-68.994132	10.523647
52197		0.738227	-0.362146	-0.527211	-0.214288	-59.509128	-69.004813	10.528533
52198		0.738153	-0.362183	-0.527264	-0.214353	-59.524166	-69.014701	10.535224
52199		0.738087	-0.362199	-0.527303	-0.214455	-59.527089	-69.025792	10.528407
52200		0.738015	-0.362204	-0.527365	-0.214540	-59.532971	-69.038643	10.527175
52201		0.737944	-0.362213	-0.527418	-0.214642	-59.536374	-69.051389	10.521645
52202		0.737880	-0.362191	-0.527490	-0.214721	-59.537476	-69.065300	10.518736
52203		0.737822	-0.362180	-0.527548	-0.214797	-59.538692	-69.077370	10.515083
52204		0.737776	-0.362156	-0.527615	-0.214830	-59.542951	-69.087637	10.519359
52205		0.737724	-0.362162	-0.527678	-0.214845	-59.556421	-69.095771	10.531697
52206		0.737682	-0.362184	-0.527724	-0.214836	-59.573842	-69.100271	10.548317
52207		0.737644	-0.362243	-0.527741	-0.214829	-59.595287	-69.100884	10.565090
52208		0.737611	-0.362307	-0.527749	-0.214813	-59.617344	-69.099838	10.582735
52209		0.737582	-0.362379	-0.527740	-0.214815	-59.636313	-69.097845	10.594820
52210		0.737555	-0.362456	-0.527720	-0.214824	-59.653418	-69.095119	10.603874
52211		0.737532	-0.362508	-0.527693	-0.214885	-59.656391	-69.095321	10.596617
52212		0.737503	-0.362560	-0.527664	-0.214966	-59.657029	-69.096638	10.585384
52213		0.737486	-0.362590	-0.527619	-0.215086	-59.643874	-69.099001	10.558809
52214		0.737477	-0.362574	-0.527610	-0.215164	-59.629325	-69.103502	10.538977
52215		0.737477	-0.362559	-0.527595	-0.215226	-59.615126	-69.106177	10.520775
52216		0.737489	-0.362514	-0.527601	-0.215248	-59.600993	-69.108927	10.508947
52217		0.737511	-0.362484	-0.527601	-0.215222	-59.595044	-69.107627	10.507919
52218		0.737532	-0.362479	-0.527594	-0.215175	-59.596889	-69.103653	10.514223
52219		0.737531	-0.362532	-0.527570	-0.215149	-59.609968	-69.098362	10.524401
52220		0.737519	-0.362622	-0.527544	-0.215100	-59.635841	-69.090927	10.545865
52221		0.737500	-0.362723	-0.527507	-0.215088	-59.658348	-69.084302	10.559775
52222		0.737491	-0.362798	-0.527482	-0.215052	-59.678578	-69.077927	10.575982
52223		0.737488	-0.362825	-0.527479	-0.215026	-59.688447	-69.075428	10.585541
52224		0.737503	-0.362807	-0.527499	-0.214952	-59.695210	-69.073126	10.600403
52225		0.737534	-0.362750	-0.527525	-0.214879	-59.691522	-69.072012	10.608371
52226		0.737564	-0.362660	-0.527583	-0.214785	-59.687616	-69.073680	10.621332
52227		0.737594	-0.362572	-0.527643	-0.214685	-59.685082	-69.075259	10.635967
52228		0.737619	-0.362481	-0.527711	-0.214587	-59.683228	-69.077769	10.651444
52229		0.737616	-0.362429	-0.527776	-0.214521	-59.688973	-69.081642	10.668141
52230		0.737614	-0.362376	-0.527843	-0.214454	-59.694794	-69.085669	10.685140
52231		0.737598	-0.362316	-0.527922	-0.214416	-59.698215	-69.093117	10.698179
52232		0.737606	-0.362213	-0.528010	-0.214347	-59.694110	-69.100172	10.710203
52233		0.737614	-0.362119	-0.528091	-0.214277	-59.691514	-69.106171	10.722932
52234		0.737629	-0.361985	-0.528209	-0.214164	-59.689534	-69.114115	10.743986
52235		0.737640	-0.361882	-0.528309	-0.214055	-59.692113	-69.119837	10.766262
52236		0.737673	-0.361747	-0.528410	-0.213918	-59.688790	-69.124253	10.787934
52237		0.737697	-0.361640	-0.528508	-0.213771	-59.694070	-69.127342	10.816388
52238		0.737718	-0.361564	-0.528604	-0.213592	-59.711178	-69.127534	10.856605
52239		0.737743	-0.361486	-0.528681	-0.213448	-59.719734	-69.127857	10.885388
52240		0.737780	-0.361407	-0.528755	-0.213269	-59.731048	-69.125533	10.919794
52241		0.737815	-0.361340	-0.528816	-0.213110	-59.741392	-69.122970	10.950334
52242		0.737861	-0.361255	-0.528882	-0.212931	-59.749010	-69.119866	10.981592
52243		0.737923	-0.361161	-0.528931	-0.212753	-59.750652	-69.114958	11.007422
52244		0.737992	-0.361029	-0.529006	-0.212555	-59.748603	-69.112205	11.035034
52245		0.738062	-0.360907	-0.529060	-0.212381	-59.742939	-69.108548	11.055801
52246		0.738156	-0.360757	-0.529114	-0.212176	-59.731864	-69.103409	11.076381
52247		0.738223	-0.360625	-0.529174	-0.212017	-59.722677	-69.101548	11.093442
52248		0.738300	-0.360488	-0.529233	-0.211834	-59.714477	-69.098093	11.113744
52249		0.738384	-0.360374	-0.529262	-0.211663	-59.705185	-69.091780	11.129789
52250		0.738478	-0.360242	-0.529299	-0.211466	-59.695166	-69.084805	11.148882
52251		0.738560	-0.360128	-0.529339	-0.211278	-59.689726	-69.078425	11.170243
52252		0.738666	-0.359979	-0.529377	-0.211062	-59.676830	-69.070679	11.189741
52253		0.738778	-0.359845	-0.529416	-0.210802	-59.672914	-69.059813	11.220430
52254		0.738886	-0.359656	-0.529493	-0.210553	-59.660161	-69.054822	11.246856
52255		0.739001	-0.359455	-0.529568	-0.210301	-59.644097	-69.049709	11.271270
52256		0.739119	-0.359197	-0.529701	-0.209996	-59.629128	-69.048496	11.307113
52257		0.739251	-0.358889	-0.529849	-0.209684	-59.604013	-69.049346	11.337986
52258		0.739406	-0.358509	-0.530024	-0.209344	-59.566694	-69.052595	11.365989
52259		0.739567	-0.358097	-0.530215	-0.208996	-59.524378	-69.057747	11.392675
52260		0.739731	-0.357642	-0.530437	-0.208631	-59.478384	-69.065884	11.421331
52261		0.739906	-0.357147	-0.530672	-0.208262	-59.423658	-69.075921	11.445384
52262		0.740098	-0.356625	-0.530895	-0.207901	-59.358255	-69.085672	11.460398
52263		0.740278	-0.356141	-0.531109	-0.207545	-59.301021	-69.094039	11.479594
52264		0.740484	-0.355631	-0.531309	-0.207172	-59.235283	-69.100246	11.493947
52265		0.740697	-0.355143	-0.531478	-0.206815	-59.167692	-69.103573	11.502672
52266		0.740920	-0.354649	-0.531639	-0.206450	-59.097163	-69.105446	11.509710
52267		0.741140	-0.354201	-0.531759	-0.206120	-59.027802	-69.104383	11.510317
52268		0.741388	-0.353740	-0.531860	-0.205758	-58.954020	-69.099159	11.510263
52269		0.741627	-0.353347	-0.531916	-0.205429	-58.886774	-69.089952	11.507211
52270		0.741892	-0.352971	-0.531944	-0.205046	-58.824200	-69.073555	11.511533
52271		0.742164	-0.352641	-0.531921	-0.204688	-58.761205	-69.052457	11.508694
52272		0.742456	-0.352343	-0.531863	-0.204291	-58.704244	-69.024164	11.511977
52273		0.742738	-0.352112	-0.531770	-0.203906	-58.658078	-68.991523	11.518571
52274		0.743023	-0.351930	-0.531651	-0.203495	-58.622960	-68.953490	11.533739
52275		0.743314	-0.351798	-0.531483	-0.203093	-58.591244	-68.909688	11.546359
52276		0.743580	-0.351695	-0.531337	-0.202685	-58.572842	-68.867477	11.570535
52277		0.743854	-0.351620	-0.531154	-0.202287	-58.553996	-68.821365	11.590439
52278		0.744107	-0.351576	-0.530974	-0.201906	-58.542670	-68.776148	11.613632
52279		0.744350	-0.351520	-0.530800	-0.201565	-58.524876	-68.734558	11.628175
52280		0.744596	-0.351443	-0.530636	-0.201220	-58.504142	-68.694123	11.642055
52281		0.744831	-0.351366	-0.530476	-0.200907	-58.480520	-68.656312	11.650381
52282		0.745055	-0.351272	-0.530350	-0.200572	-58.461950	-68.621218	11.667416
52283		0.745266	-0.351173	-0.530234	-0.200271	-58.440427	-68.589600	11.679325
52284		0.745450	-0.351084	-0.530144	-0.199978	-58.426539	-68.561487	11.697430
52285		0.745616	-0.350993	-0.530073	-0.199707	-58.413746	-68.536935	11.715150
52286		0.745761	-0.350902	-0.530037	-0.199425	-58.409166	-68.515710	11.742427
52287		0.745889	-0.350795	-0.530024	-0.199166	-58.402608	-68.498937	11.767337
52288		0.746000	-0.350690	-0.530039	-0.198897	-58.403766	-68.484717	11.800860
52289		0.746089	-0.350578	-0.530081	-0.198647	-58.406479	-68.474949	11.835322
52290		0.746167	-0.350462	-0.530153	-0.198366	-58.417604	-68.466733	11.881332
52291		0.746214	-0.350351	-0.530255	-0.198112	-58.433457	-68.463647	11.929780
52292		0.746263	-0.350213	-0.530376	-0.197848	-58.446818	-68.462543	11.979178
52293		0.746277	-0.350120	-0.530505	-0.197616	-58.471182	-68.463678	12.032785
52294		0.746249	-0.350012	-0.530688	-0.197419	-58.499468	-68.473612	12.089218
52295		0.746190	-0.349935	-0.530880	-0.197262	-58.533878	-68.486685	12.145712
52296		0.746125	-0.349808	-0.531111	-0.197112	-58.562027	-68.505542	12.200215
52297		0.746046	-0.349653	-0.531367	-0.196996	-58.584397	-68.529930	12.248897
52298		0.745957	-0.349457	-0.531675	-0.196848	-58.609195	-68.558861	12.306942
52299		0.745873	-0.349213	-0.532005	-0.196709	-58.624418	-68.591728	12.359106
52300		0.745789	-0.348900	-0.532406	-0.196499	-58.642835	-68.629210	12.427465
52301		0.745726	-0.348541	-0.532809	-0.196280	-58.649606	-68.667103	12.489062
52302		0.745673	-0.348111	-0.533262	-0.196014	-58.651911	-68.708988	12.557098
52303		0.745623	-0.347663	-0.533722	-0.195749	-58.650913	-68.751866	12.623391
52304		0.745595	-0.347176	-0.534184	-0.195459	-58.642113	-68.794282	12.687521
52305		0.745551	-0.346714	-0.534641	-0.195198	-58.636302	-68.837405	12.749890
52306		0.745522	-0.346244	-0.535080	-0.194941	-58.624460	-68.878991	12.806419
52307		0.745497	-0.345794	-0.535482	-0.194729	-58.605383	-68.919012	12.849702
52308		0.745480	-0.345316	-0.535898	-0.194500	-58.583567	-68.960049	12.894378
52309		0.745465	-0.344889	-0.536270	-0.194288	-58.565178	-68.996259	12.935869
52310		0.745477	-0.344420	-0.536641	-0.194048	-58.537265	-69.031252	12.974104
52311		0.745490	-0.343998	-0.536975	-0.193823	-58.513356	-69.062227	13.010446
52312		0.745518	-0.343542	-0.537329	-0.193546	-58.489451	-69.092660	13.054380
52313		0.745543	-0.343111	-0.537669	-0.193267	-58.470407	-69.121000	13.100966
52314		0.745563	-0.342677	-0.538038	-0.192933	-58.462438	-69.149178	13.163651
52315		0.745592	-0.342231	-0.538408	-0.192581	-58.453423	-69.176448	13.227938
52316		0.745613	-0.341771	-0.538821	-0.192158	-58.457858	-69.204428	13.313302
52317		0.745655	-0.341319	-0.539225	-0.191669	-58.469467	-69.226804	13.410650
52318		0.745694	-0.340848	-0.539672	-0.191094	-58.494770	-69.248959	13.530869
52319		0.745743	-0.340391	-0.540125	-0.190435	-58.534716	-69.266060	13.671523
52320		0.745795	-0.339911	-0.540624	-0.189674	-58.589334	-69.282090	13.837987
52321		0.745859	-0.339426	-0.541141	-0.188814	-58.657292	-69.293964	14.026596
52322		0.745927	-0.338885	-0.541729	-0.187828	-58.739587	-69.306679	14.245711
52323		0.745999	-0.338282	-0.542376	-0.186761	-58.825920	-69.321957	14.481863
52324		0.746081	-0.337574	-0.543126	-0.185527	-58.924311	-69.340033	14.754138
52325		0.746171	-0.336733	-0.543971	-0.184217	-59.014929	-69.366583	15.037915
52326		0.746282	-0.335756	-0.544911	-0.182765	-59.105118	-69.397449	15.346010
52327		0.746394	-0.334658	-0.545943	-0.181234	-59.191795	-69.436042	15.668735
52328		0.746510	-0.333433	-0.547080	-0.179581	-59.281111	-69.481235	16.016398
52329		0.746629	-0.332098	-0.548298	-0.177835	-59.370173	-69.532049	16.381928
52330		0.746755	-0.330638	-0.549617	-0.175948	-59.464673	-69.587819	16.776362
52331		0.746878	-0.329068	-0.551024	-0.173954	-59.563355	-69.649112	17.194168
52332		0.747015	-0.327409	-0.552493	-0.171821	-59.669711	-69.710639	17.639306
52333		0.747156	-0.325631	-0.554051	-0.169559	-59.780981	-69.776663	18.111179
52334		0.747309	-0.323725	-0.555684	-0.167175	-59.891194	-69.846335	18.603571
52335		0.747466	-0.321745	-0.557349	-0.164733	-59.999356	-69.918075	19.105133
52336		0.747643	-0.319628	-0.559078	-0.162169	-60.102395	-69.992815	19.623817
52337		0.747843	-0.317404	-0.560840	-0.159515	-60.197948	-70.068511	20.151754
52338		0.748069	-0.315042	-0.562651	-0.156733	-60.286230	-70.145550	20.694996
52339		0.748326	-0.312576	-0.564479	-0.153843	-60.366573	-70.220939	21.247909
52340		0.748628	-0.309959	-0.566333	-0.150829	-60.430123	-70.295841	21.807206
52341		0.748972	-0.307207	-0.568195	-0.147713	-60.474918	-70.369974	22.367370
52342		0.749349	-0.304302	-0.570079	-0.144521	-60.496789	-70.447033	22.923733
52343		0.749796	-0.301230	-0.571929	-0.141297	-60.471959	-70.524636	23.449830
52344		0.750290	-0.298035	-0.573743	-0.138051	-60.412261	-70.602340	23.952401
52345		0.750855	-0.294721	-0.575483	-0.134816	-60.303390	-70.678197	24.414115
52346		0.751475	-0.291309	-0.577147	-0.131630	-60.146455	-70.754096	24.830872
52347		0.752148	-0.287869	-0.578688	-0.128549	-59.941782	-70.826574	25.192048
52348		0.752874	-0.284442	-0.580089	-0.125581	-59.693742	-70.892892	25.497726
52349		0.753666	-0.281044	-0.581315	-0.122780	-59.390405	-70.952305	25.729904
52350		0.754496	-0.277795	-0.582352	-0.120138	-59.061212	-70.998617	25.908399
52351		0.755336	-0.274647	-0.583245	-0.117741	-58.695258	-71.043437	26.019590
52352		0.756218	-0.271624	-0.583966	-0.115494	-58.301023	-71.076537	26.077775
52353		0.757151	-0.268682	-0.584524	-0.113418	-57.865441	-71.101310	26.072225
52354		0.758084	-0.265838	-0.584986	-0.111494	-57.414654	-71.122937	26.029508
52355		0.759046	-0.263078	-0.585330	-0.109668	-56.944551	-71.135912	25.951073
52356		0.759999	-0.260364	-0.585639	-0.107886	-56.474488	-71.146708	25.864554
52357		0.760956	-0.257728	-0.585874	-0.106173	-55.999890	-71.151752	25.760354
52358		0.761889	-0.255183	-0.586080	-0.104483	-55.541972	-71.152300	25.662651
52359		0.762789	-0.252788	-0.586249	-0.102780	-55.120690	-71.143517	25.589219
52360		0.763627	-0.250496	-0.586450	-0.101006	-54.748705	-71.131076	25.561986
52361		0.764422	-0.248223	-0.586708	-0.099083	-54.419579	-71.115837	25.588123
52362		0.765181	-0.245924	-0.587057	-0.096868	-54.147721	-71.094508	25.698090
52363		0.765953	-0.243498	-0.587480	-0.094297	-53.908699	-71.064823	25.881097
52364		0.766720	-0.240932	-0.588016	-0.091270	-53.723678	-71.025950	26.167818
52365		0.767546	-0.238153	-0.588607	-0.087742	-53.561997	-70.971656	26.537052
52366		0.768417	-0.235286	-0.589219	-0.083648	-53.458183	-70.890416	27.017884
52367		0.769296	-0.232372	-0.589863	-0.079046	-53.418903	-70.785814	27.608564
52368		0.770181	-0.229453	-0.590517	-0.073907	-53.452857	-70.652433	28.316426
52369		0.771085	-0.226519	-0.591147	-0.068273	-53.540648	-70.489554	29.119169
52370		0.772018	-0.223593	-0.591712	-0.062214	-53.666166	-70.295910	29.992971
52371		0.772946	-0.220747	-0.592200	-0.055892	-53.822805	-70.077450	30.911749
52372		0.773886	-0.218005	-0.592559	-0.049477	-53.980564	-69.837524	31.829301
52373		0.774825	-0.215376	-0.592793	-0.043088	-54.126746	-69.583449	32.722749
52374		0.775739	-0.212861	-0.592920	-0.036945	-54.241331	-69.330335	33.553946
52375		0.776620	-0.210441	-0.592962	-0.031164	-54.312788	-69.087994	34.303842
52376		0.777478	-0.208130	-0.592910	-0.025844	-54.332611	-68.860678	34.954577
52377		0.778315	-0.205879	-0.592790	-0.020979	-54.298150	-68.652969	35.508502
52378		0.779117	-0.203689	-0.592633	-0.016546	-54.222029	-68.466237	35.979968
52379		0.779882	-0.201461	-0.592488	-0.012425	-54.108416	-68.302488	36.391699
52380		0.780605	-0.199162	-0.592384	-0.008499	-53.969817	-68.159128	36.768504
52381		0.781262	-0.196821	-0.592342	-0.004690	-53.828541	-68.032277	37.136750
52382		0.781860	-0.194394	-0.592372	-0.000934	-53.683838	-67.921156	37.504628
52383		0.782373	-0.191855	-0.592517	0.002911	-53.556271	-67.822818	37.906556
52384		0.782791	-0.189201	-0.592786	0.006866	-53.450213	-67.737197	38.348943
52385		0.783123	-0.186374	-0.593180	0.011006	-53.361533	-67.662687	38.838563
52386		0.783362	-0.183405	-0.593693	0.015345	-53.297595	-67.596741	39.381252
52387		0.783515	-0.180261	-0.594317	0.019926	-53.254161	-67.537383	39.979120
52388		0.783588	-0.176976	-0.595030	0.024659	-53.224256	-67.486487	40.614708
52389		0.783582	-0.173584	-0.595816	0.029518	-53.209263	-67.442312	41.284452
52390		0.783498	-0.170200	-0.596639	0.034418	-53.216296	-67.400755	41.978529
52391		0.783325	-0.166751	-0.597535	0.039349	-53.238253	-67.369429	42.695498
52392		0.783073	-0.163295	-0.598475	0.044256	-53.274416	-67.345779	43.425179
52393		0.782755	-0.159808	-0.599452	0.049132	-53.317443	-67.330614	44.161407
52394		0.782373	-0.156311	-0.600460	0.053919	-53.364793	-67.325665	44.895290
52395		0.781938	-0.152789	-0.601490	0.058637	-53.413327	-67.329600	45.626597
52396		0.781468	-0.149253	-0.602521	0.063244	-53.454888	-67.342335	46.342662
52397		0.780962	-0.145724	-0.603551	0.067747	-53.494310	-67.362113	47.047230
52398		0.780414	-0.142254	-0.604581	0.072108	-53.538649	-67.388217	47.739843
52399		0.779829	-0.138808	-0.605613	0.076367	-53.585413	-67.420606	48.424338
52400		0.779200	-0.135460	-0.606643	0.080517	-53.646806	-67.454956	49.106088
52401		0.778531	-0.132167	-0.607668	0.084622	-53.720904	-67.489392	49.792092
