header=PacketCounter SampleTimeFine Quat_q0 Quat_q1 Quat_q2 Quat_q3 Roll Pitch Yaw
version=1
nRows=5331
nColumns=9
inDegrees=no
endheader
50856		0.169947	0.118994	-0.739964	-0.639853	97.124353	-5.694975	-156.700503
50857		0.170319	0.118897	-0.740759	-0.638851	97.259298	-5.763175	-156.686288
50858		0.170613	0.118799	-0.741621	-0.637790	97.405787	-5.826866	-156.678870
50859		0.170797	0.118706	-0.742547	-0.636680	97.563667	-5.882796	-156.680359
50860		0.170841	0.118584	-0.743561	-0.635507	97.736083	-5.931505	-156.696081
50861		0.170783	0.118476	-0.744589	-0.634337	97.911651	-5.970676	-156.718830
50862		0.170645	0.118338	-0.745622	-0.633186	98.087463	-6.004930	-156.750450
50863		0.170468	0.118151	-0.746641	-0.632066	98.259865	-6.038622	-156.789286
50864		0.170249	0.117914	-0.747601	-0.631034	98.420888	-6.069850	-156.835245
50865		0.170042	0.117600	-0.748467	-0.630121	98.563791	-6.104213	-156.886086
50866		0.169845	0.117205	-0.749250	-0.629317	98.690294	-6.142070	-156.942619
50867		0.169694	0.116731	-0.749936	-0.628629	98.797898	-6.186108	-157.001581
50868		0.169587	0.116159	-0.750521	-0.628065	98.885674	-6.237298	-157.064825
50869		0.169526	0.115489	-0.751012	-0.627618	98.954576	-6.296073	-157.132217
50870		0.169555	0.114717	-0.751376	-0.627317	98.998845	-6.365546	-157.200443
50871		0.169629	0.113860	-0.751651	-0.627122	99.025719	-6.441933	-157.271695
50872		0.169735	0.112934	-0.751838	-0.627037	99.035517	-6.522813	-157.345672
50873		0.169897	0.111908	-0.751922	-0.627076	99.024930	-6.612220	-157.423114
50874		0.170090	0.110815	-0.751917	-0.627224	98.997361	-6.706008	-157.503016
50875		0.170334	0.109658	-0.751807	-0.627493	98.950099	-6.805362	-157.583505
50876		0.170624	0.108423	-0.751635	-0.627835	98.890427	-6.912360	-157.666400
50877		0.170947	0.107163	-0.751357	-0.628296	98.811965	-7.020451	-157.747753
50878		0.171324	0.105911	-0.750985	-0.628850	98.717507	-7.129877	-157.822988
50879		0.171747	0.104649	-0.750522	-0.629498	98.607443	-7.241238	-157.894489
50880		0.172216	0.103383	-0.749987	-0.630217	98.484954	-7.354667	-157.961728
50881		0.172759	0.102131	-0.749385	-0.630988	98.351828	-7.471804	-158.021018
50882		0.173367	0.100887	-0.748726	-0.631803	98.209337	-7.592560	-158.073557
50883		0.174067	0.099663	-0.748003	-0.632661	98.056625	-7.718143	-158.116282
50884		0.174841	0.098476	-0.747226	-0.633550	97.896032	-7.846126	-158.149021
50885		0.175716	0.097288	-0.746393	-0.634474	97.726010	-7.981453	-158.172984
50886		0.176649	0.096122	-0.745532	-0.635404	97.552366	-8.119736	-158.189716
50887		0.177617	0.094965	-0.744649	-0.636342	97.375589	-8.259917	-158.202103
50888		0.178624	0.093819	-0.743723	-0.637313	97.192079	-8.401485	-158.209530
50889		0.179637	0.092666	-0.742778	-0.638299	97.005489	-8.543708	-158.216346
50890		0.180584	0.091503	-0.741862	-0.639263	96.824385	-8.681839	-158.229054
50891		0.181470	0.090311	-0.740942	-0.640247	96.642289	-8.816794	-158.248551
50892		0.182309	0.089100	-0.740011	-0.641255	96.458347	-8.948686	-158.272661
50893		0.183050	0.087887	-0.739037	-0.642334	96.267161	-9.070841	-158.303787
50894		0.183732	0.086672	-0.738031	-0.643460	96.070970	-9.187125	-158.338893
50895		0.184354	0.085471	-0.736998	-0.644625	95.870917	-9.296555	-158.376669
50896		0.184882	0.084325	-0.735955	-0.645816	95.670379	-9.393452	-158.416878
50897		0.185364	0.083264	-0.734849	-0.647073	95.461245	-9.478232	-158.452315
50898		0.185813	0.082315	-0.733651	-0.648424	95.238684	-9.549114	-158.479419
50899		0.186172	0.081516	-0.732394	-0.649842	95.009045	-9.599400	-158.500072
50900		0.186452	0.080927	-0.731143	-0.651242	94.784790	-9.627342	-158.509362
50901		0.186675	0.080443	-0.729834	-0.652704	94.552930	-9.640932	-158.513581
50902		0.186853	0.080070	-0.728499	-0.654189	94.318925	-9.641441	-158.511747
50903		0.187001	0.079803	-0.727180	-0.655646	94.090037	-9.632126	-158.503656
50904		0.187089	0.079658	-0.725864	-0.657095	93.864302	-9.608593	-158.490418
50905		0.187133	0.079643	-0.724569	-0.658512	93.644920	-9.572136	-158.470413
50906		0.187138	0.079775	-0.723295	-0.659894	93.431976	-9.521932	-158.441739
50907		0.187091	0.080056	-0.722038	-0.661248	93.225168	-9.456535	-158.405447
50908		0.187031	0.080443	-0.720785	-0.662584	93.021459	-9.382069	-158.361806
50909		0.187007	0.080900	-0.719489	-0.663942	92.812310	-9.303989	-158.309062
50910		0.186963	0.081316	-0.718210	-0.665287	92.605859	-9.227903	-158.261867
50911		0.186872	0.081727	-0.717044	-0.666519	92.418629	-9.151541	-158.220549
50912		0.186789	0.082028	-0.715931	-0.667700	92.238688	-9.085932	-158.188525
50913		0.186684	0.082201	-0.714877	-0.668837	92.066439	-9.030135	-158.169767
50914		0.186574	0.082289	-0.713896	-0.669904	91.905208	-8.982816	-158.159307
50915		0.186468	0.082251	-0.712934	-0.670961	91.745034	-8.946100	-158.159101
50916		0.186346	0.082155	-0.712010	-0.671988	91.590138	-8.913639	-158.165486
50917		0.186219	0.082009	-0.711123	-0.672979	91.440819	-8.885927	-158.176908
50918		0.186075	0.081849	-0.710254	-0.673955	91.294449	-8.858529	-158.191154
50919		0.185928	0.081756	-0.709339	-0.674970	91.141908	-8.824349	-158.199641
50920		0.185829	0.081740	-0.708395	-0.675990	90.986187	-8.787458	-158.197759
50921		0.185763	0.081805	-0.707404	-0.677037	90.824707	-8.745695	-158.185880
50922		0.185762	0.081968	-0.706360	-0.678108	90.656446	-8.700141	-158.160287
50923		0.185806	0.082212	-0.705275	-0.679194	90.483592	-8.650864	-158.123921
50924		0.185904	0.082541	-0.704156	-0.680288	90.306922	-8.598357	-158.076027
50925		0.186041	0.082899	-0.703055	-0.681344	90.134231	-8.547460	-158.022763
50926		0.186222	0.083300	-0.701974	-0.682360	89.965938	-8.497432	-157.962821
50927		0.186489	0.083726	-0.700903	-0.683335	89.800229	-8.452873	-157.893802
50928		0.186812	0.084152	-0.699859	-0.684263	89.639113	-8.413772	-157.820485
50929		0.187265	0.084558	-0.698786	-0.685186	89.473222	-8.385958	-157.737644
50930		0.187836	0.084954	-0.697701	-0.686086	89.305401	-8.368238	-157.645428
50931		0.188538	0.085332	-0.696612	-0.686953	89.137022	-8.362683	-157.543544
50932		0.189356	0.085664	-0.695549	-0.687763	88.972185	-8.370850	-157.435760
50933		0.190247	0.085962	-0.694550	-0.688489	88.817110	-8.389667	-157.325093
50934		0.191246	0.086203	-0.693619	-0.689120	88.672150	-8.423901	-157.210495
50935		0.192348	0.086372	-0.692747	-0.689670	88.535199	-8.473978	-157.093399
50936		0.193567	0.086442	-0.691928	-0.690142	88.404863	-8.543225	-156.974510
50937		0.194888	0.086408	-0.691175	-0.690528	88.283139	-8.630928	-156.855710
50938		0.196284	0.086282	-0.690483	-0.690841	88.169176	-8.734034	-156.738112
50939		0.197752	0.086048	-0.689848	-0.691086	88.062243	-8.853300	-156.623310
50940		0.199277	0.085754	-0.689297	-0.691234	87.967491	-8.984681	-156.509065
50941		0.200784	0.085402	-0.688819	-0.691318	87.883148	-9.121457	-156.401334
50942		0.202257	0.084998	-0.688405	-0.691351	87.808112	-9.261612	-156.301340
50943		0.203706	0.084572	-0.688045	-0.691336	87.741205	-9.403232	-156.205441
50944		0.205070	0.084121	-0.687738	-0.691293	87.682397	-9.541669	-156.119330
50945		0.206361	0.083661	-0.687467	-0.691234	87.629126	-9.675821	-156.040343
50946		0.207601	0.083190	-0.687223	-0.691162	87.580032	-9.807682	-155.966878
50947		0.208814	0.082698	-0.686961	-0.691117	87.527607	-9.938215	-155.897025
50948		0.209968	0.082243	-0.686696	-0.691085	87.475433	-10.060837	-155.829137
50949		0.211092	0.081776	-0.686451	-0.691042	87.426334	-10.182677	-155.764880
50950		0.212172	0.081315	-0.686256	-0.690959	87.385373	-10.302047	-155.704536
50951		0.213229	0.080835	-0.686081	-0.690864	87.347323	-10.421706	-155.647738
50952		0.214297	0.080320	-0.685908	-0.690764	87.308937	-10.545274	-155.592703
50953		0.215390	0.079772	-0.685740	-0.690655	87.270652	-10.673525	-155.537941
50954		0.216510	0.079179	-0.685588	-0.690524	87.234036	-10.808291	-155.484469
50955		0.217680	0.078515	-0.685430	-0.690389	87.195164	-10.952612	-155.431986
50956		0.218883	0.077827	-0.685275	-0.690240	87.156320	-11.101709	-155.378195
50957		0.220098	0.077066	-0.685130	-0.690083	87.117704	-11.258046	-155.329180
50958		0.221288	0.076304	-0.685039	-0.689877	87.087954	-11.414218	-155.283063
50959		0.222402	0.075531	-0.684990	-0.689652	87.064810	-11.566604	-155.244946
50960		0.223461	0.074778	-0.684984	-0.689398	87.049003	-11.714232	-155.210704
50961		0.224439	0.074064	-0.685009	-0.689133	87.038990	-11.853262	-155.180842
50962		0.225346	0.073396	-0.685047	-0.688871	87.032109	-11.983183	-155.153785
50963		0.226189	0.072802	-0.685091	-0.688614	87.027680	-12.102197	-155.126661
50964		0.226988	0.072245	-0.685122	-0.688378	87.022044	-12.214087	-155.100362
50965		0.227768	0.071706	-0.685137	-0.688162	87.014019	-12.322450	-155.073869
50966		0.228471	0.071218	-0.685173	-0.687944	87.010580	-12.421111	-155.050632
50967		0.229131	0.070817	-0.685199	-0.687740	87.006996	-12.509036	-155.024174
50968		0.229763	0.070475	-0.685172	-0.687591	86.996059	-12.587994	-154.994752
50969		0.230315	0.070270	-0.685143	-0.687457	86.987205	-12.649237	-154.961628
50970		0.230736	0.070230	-0.685160	-0.687302	86.988957	-12.688115	-154.928013
50971		0.231050	0.070389	-0.685214	-0.687127	86.999979	-12.703441	-154.889022
50972		0.231256	0.070743	-0.685273	-0.686962	87.015511	-12.694411	-154.844509
50973		0.231409	0.071266	-0.685342	-0.686788	87.035712	-12.667898	-154.791853
50974		0.231583	0.071946	-0.685375	-0.686625	87.052993	-12.629284	-154.724442
50975		0.231877	0.072723	-0.685283	-0.686536	87.051828	-12.588647	-154.636933
50976		0.232200	0.073594	-0.685185	-0.686431	87.051525	-12.542636	-154.539434
50977		0.232517	0.074559	-0.685176	-0.686229	87.067460	-12.491912	-154.436727
50978		0.232869	0.075588	-0.685122	-0.686052	87.077461	-12.437388	-154.325280
50979		0.233196	0.076693	-0.685120	-0.685820	87.097612	-12.376782	-154.210937
50980		0.233425	0.077952	-0.685271	-0.685448	87.145671	-12.301475	-154.095732
50981		0.233559	0.079349	-0.685567	-0.684947	87.219995	-12.212736	-153.980525
50982		0.233697	0.080845	-0.685957	-0.684334	87.311893	-12.120108	-153.858636
50983		0.233811	0.082473	-0.686463	-0.683593	87.425472	-12.019761	-153.730314
50984		0.233875	0.084218	-0.687114	-0.682704	87.565406	-11.911780	-153.599405
50985		0.233866	0.086076	-0.687930	-0.681652	87.735061	-11.795583	-153.468374
50986		0.233822	0.088004	-0.688840	-0.680502	87.921947	-11.674875	-153.335964
50987		0.233766	0.089987	-0.689826	-0.679261	88.123372	-11.552512	-153.201056
50988		0.233746	0.091937	-0.690852	-0.677963	88.331326	-11.438057	-153.065725
50989		0.233804	0.093832	-0.691848	-0.676667	88.534056	-11.334001	-152.927057
50990		0.234037	0.095574	-0.692737	-0.675431	88.716886	-11.253217	-152.783085
50991		0.234470	0.097086	-0.693500	-0.674282	88.874703	-11.202816	-152.637821
50992		0.234970	0.098377	-0.694226	-0.673173	89.021973	-11.174355	-152.503406
50993		0.235531	0.099472	-0.694922	-0.672096	89.160346	-11.165371	-152.378691
50994		0.236096	0.100365	-0.695587	-0.671077	89.289094	-11.171396	-152.269115
50995		0.236620	0.101076	-0.696276	-0.670070	89.417871	-11.189204	-152.177772
50996		0.237060	0.101643	-0.696981	-0.669095	89.546017	-11.211694	-152.105403
50997		0.237364	0.102096	-0.697725	-0.668143	89.677946	-11.233081	-152.054331
50998		0.237479	0.102456	-0.698552	-0.667181	89.821559	-11.248779	-152.028303
50999		0.237404	0.102731	-0.699492	-0.666181	89.981621	-11.259298	-152.027132
51000		0.237143	0.102906	-0.700482	-0.665206	90.147692	-11.263462	-152.050532
51001		0.236734	0.103009	-0.701498	-0.664264	90.316727	-11.261402	-152.092826
51002		0.236180	0.103024	-0.702522	-0.663376	90.485040	-11.253832	-152.154623
51003		0.235557	0.102952	-0.703526	-0.662544	90.648280	-11.245932	-152.229035
51004		0.234886	0.102785	-0.704463	-0.661812	90.798387	-11.238207	-152.314017
51005		0.234301	0.102542	-0.705283	-0.661183	90.927640	-11.238887	-152.395861
51006		0.233752	0.102178	-0.706013	-0.660655	91.039275	-11.247999	-152.483055
51007		0.233311	0.101719	-0.706635	-0.660216	91.131152	-11.269185	-152.566990
51008		0.233015	0.101148	-0.707114	-0.659897	91.196777	-11.305624	-152.645514
51009		0.232878	0.100459	-0.707465	-0.659674	91.238804	-11.359600	-152.718096
51010		0.232867	0.099646	-0.707708	-0.659540	91.260370	-11.429543	-152.788318
51011		0.232940	0.098719	-0.707932	-0.659413	91.276435	-11.514620	-152.860315
51012		0.233207	0.097658	-0.707934	-0.659475	91.252782	-11.617954	-152.923176
51013		0.233624	0.096426	-0.707769	-0.659685	91.197993	-11.740631	-152.984294
51014		0.233898	0.095190	-0.707754	-0.659784	91.168310	-11.857301	-153.060209
51015		0.234238	0.093878	-0.707687	-0.659923	91.128599	-11.983496	-153.135730
51016		0.234592	0.092505	-0.707556	-0.660132	91.077429	-12.113144	-153.213810
51017		0.234955	0.091145	-0.707339	-0.660424	91.012714	-12.239398	-153.288516
51018		0.235450	0.089818	-0.706935	-0.660862	90.917936	-12.367434	-153.346035
51019		0.235818	0.088586	-0.706663	-0.661188	90.847470	-12.482636	-153.408802
51020		0.235963	0.087501	-0.706672	-0.661271	90.826775	-12.578313	-153.483530
51021		0.236238	0.086490	-0.706598	-0.661385	90.794141	-12.676331	-153.539752
51022		0.236724	0.085540	-0.706312	-0.661641	90.727726	-12.779996	-153.569346
51023		0.237308	0.084796	-0.705977	-0.661884	90.657571	-12.874588	-153.572915
51024		0.237973	0.084282	-0.705663	-0.662047	90.595376	-12.959355	-153.551551
51025		0.238755	0.083927	-0.705310	-0.662186	90.529978	-13.040669	-153.506614
51026		0.239698	0.083704	-0.704917	-0.662292	90.460567	-13.124172	-153.436528
51027		0.240779	0.083607	-0.704494	-0.662362	90.388730	-13.208652	-153.343817
51028		0.241993	0.083596	-0.704061	-0.662381	90.316841	-13.297760	-153.232484
51029		0.243318	0.083650	-0.703606	-0.662372	90.242576	-13.390417	-153.105814
51030		0.244688	0.083806	-0.703166	-0.662315	90.172793	-13.479639	-152.967223
51031		0.246125	0.084033	-0.702720	-0.662228	90.103387	-13.568998	-152.816866
51032		0.247532	0.084352	-0.702325	-0.662082	90.044224	-13.650565	-152.662513
51033		0.248857	0.084751	-0.702009	-0.661869	89.999981	-13.722070	-152.510358
51034		0.250058	0.085207	-0.701811	-0.661569	89.976185	-13.783072	-152.366490
51035		0.251052	0.085741	-0.701728	-0.661211	89.973283	-13.824862	-152.236432
51036		0.251884	0.086415	-0.701702	-0.660833	89.982737	-13.844261	-152.110316
51037		0.252567	0.087172	-0.701696	-0.660480	89.997245	-13.845237	-151.990919
51038		0.253116	0.088034	-0.701692	-0.660159	90.014398	-13.826673	-151.874810
51039		0.253557	0.088990	-0.701698	-0.659855	90.035336	-13.792162	-151.760861
51040		0.253925	0.089998	-0.701692	-0.659584	90.055521	-13.746741	-151.648870
51041		0.254222	0.091019	-0.701688	-0.659334	90.076683	-13.694538	-151.542044
51042		0.254491	0.092020	-0.701689	-0.659090	90.098516	-13.641634	-151.439276
51043		0.254763	0.092940	-0.701682	-0.658862	90.117412	-13.594944	-151.342431
51044		0.255057	0.093789	-0.701668	-0.658644	90.133669	-13.555279	-151.249327
51045		0.255376	0.094528	-0.701617	-0.658469	90.141641	-13.524723	-151.161999
51046		0.255728	0.095196	-0.701550	-0.658308	90.145452	-13.501748	-151.077113
51047		0.256111	0.095775	-0.701456	-0.658174	90.143014	-13.487210	-150.996255
51048		0.256534	0.096248	-0.701358	-0.658046	90.137423	-13.483972	-150.920130
51049		0.256958	0.096634	-0.701263	-0.657924	90.130610	-13.487556	-150.850996
51050		0.257361	0.096923	-0.701183	-0.657809	90.124002	-13.497347	-150.791493
51051		0.257727	0.097193	-0.701115	-0.657699	90.118852	-13.505914	-150.737070
51052		0.258040	0.097379	-0.701069	-0.657598	90.115548	-13.517033	-150.694265
51053		0.258311	0.097541	-0.701032	-0.657507	90.113101	-13.526832	-150.657100
51054		0.258550	0.097678	-0.700979	-0.657449	90.107517	-13.535053	-150.624495
51055		0.258728	0.097808	-0.700926	-0.657416	90.101755	-13.538473	-150.597732
51056		0.258845	0.097932	-0.700861	-0.657421	90.093897	-13.536406	-150.576570
51057		0.258905	0.098086	-0.700776	-0.657466	90.083352	-13.526345	-150.557540
51058		0.258884	0.098267	-0.700695	-0.657533	90.074223	-13.507366	-150.543580
51059		0.258764	0.098449	-0.700627	-0.657625	90.067211	-13.480158	-150.538275
51060		0.258534	0.098722	-0.700581	-0.657724	90.065889	-13.437437	-150.535868
51061		0.258178	0.098991	-0.700591	-0.657812	90.073929	-13.386597	-150.545629
51062		0.257765	0.099273	-0.700619	-0.657902	90.085006	-13.330422	-150.559671
51063		0.257280	0.099592	-0.700654	-0.658007	90.098183	-13.265501	-150.577238
51064		0.256756	0.099919	-0.700721	-0.658091	90.116908	-13.197945	-150.597921
51065		0.256249	0.100253	-0.700795	-0.658159	90.136933	-13.131695	-150.616756
51066		0.255796	0.100571	-0.700870	-0.658206	90.156823	-13.071457	-150.632108
51067		0.255412	0.100875	-0.700942	-0.658232	90.175866	-13.018128	-150.642565
51068		0.255094	0.101178	-0.701002	-0.658245	90.192959	-12.970110	-150.647122
51069		0.254842	0.101464	-0.701049	-0.658249	90.207398	-12.928557	-150.647135
51070		0.254699	0.101689	-0.701068	-0.658249	90.215987	-12.899956	-150.641994
51071		0.254623	0.101868	-0.701068	-0.658251	90.220155	-12.879741	-150.634266
51072		0.254603	0.101992	-0.701051	-0.658257	90.220366	-12.868020	-150.625869
51073		0.254637	0.102052	-0.701017	-0.658271	90.216150	-12.864947	-150.617563
51074		0.254705	0.102042	-0.700966	-0.658300	90.207604	-12.869474	-150.611625
51075		0.254815	0.101970	-0.700877	-0.658364	90.191233	-12.880709	-150.606264
51076		0.254918	0.101831	-0.700796	-0.658431	90.174598	-12.896673	-150.606959
51077		0.255036	0.101639	-0.700695	-0.658523	90.153376	-12.917152	-150.610157
51078		0.255137	0.101340	-0.700586	-0.658645	90.128296	-12.943926	-150.623303
51079		0.255220	0.101030	-0.700479	-0.658775	90.103269	-12.969974	-150.638852
51080		0.255250	0.100670	-0.700378	-0.658926	90.078087	-12.995591	-150.663053
51081		0.255243	0.100259	-0.700290	-0.659085	90.053892	-13.022342	-150.694771
51082		0.255178	0.099804	-0.700216	-0.659257	90.031014	-13.047992	-150.735207
51083		0.255060	0.099307	-0.700154	-0.659445	90.009073	-13.072651	-150.783840
51084		0.254880	0.098763	-0.700109	-0.659643	89.989059	-13.096428	-150.841858
51085		0.254646	0.098205	-0.700090	-0.659837	89.972971	-13.117659	-150.906141
51086		0.254338	0.097626	-0.700105	-0.660026	89.962038	-13.135540	-150.979033
51087		0.254024	0.097023	-0.700120	-0.660220	89.950692	-13.154730	-151.054352
51088		0.253696	0.096434	-0.700129	-0.660423	89.938860	-13.171465	-151.129796
51089		0.253367	0.095843	-0.700134	-0.660630	89.926256	-13.188130	-151.205302
51090		0.253023	0.095277	-0.700155	-0.660820	89.917075	-13.202252	-151.280348
51091		0.252728	0.094731	-0.700146	-0.661022	89.903302	-13.217930	-151.349134
51092		0.252443	0.094170	-0.700129	-0.661229	89.887995	-13.235204	-151.418028
51093		0.252152	0.093630	-0.700107	-0.661440	89.872434	-13.250276	-151.485737
51094		0.251873	0.093137	-0.700083	-0.661642	89.857570	-13.262773	-151.548513
51095		0.251545	0.092708	-0.700081	-0.661829	89.847907	-13.267037	-151.611010
51096		0.251194	0.092309	-0.700093	-0.662004	89.841258	-13.267638	-151.673310
51097		0.250853	0.091907	-0.700107	-0.662175	89.834816	-13.269413	-151.735028
51098		0.250529	0.091515	-0.700119	-0.662340	89.828290	-13.271892	-151.794449
51099		0.250231	0.091126	-0.700100	-0.662526	89.816810	-13.275061	-151.850727
51100		0.249959	0.090716	-0.700068	-0.662719	89.802656	-13.281635	-151.906259
51101		0.249739	0.090342	-0.700015	-0.662909	89.785993	-13.289127	-151.954057
51102		0.249510	0.089958	-0.699972	-0.663093	89.770720	-13.297018	-152.003533
51103		0.249321	0.089594	-0.699929	-0.663258	89.756013	-13.306862	-152.048039
51104		0.249156	0.089248	-0.699884	-0.663414	89.741206	-13.317325	-152.088832
51105		0.249010	0.088941	-0.699796	-0.663603	89.720375	-13.324760	-152.124257
51106		0.248795	0.088719	-0.699721	-0.663793	89.703307	-13.320135	-152.159119
51107		0.248501	0.088568	-0.699702	-0.663943	89.697060	-13.305686	-152.196258
51108		0.248210	0.088462	-0.699702	-0.664066	89.694773	-13.288609	-152.229902
51109		0.247926	0.088380	-0.699680	-0.664206	89.689495	-13.269522	-152.260591
51110		0.247670	0.088350	-0.699639	-0.664349	89.682142	-13.248134	-152.284506
51111		0.247388	0.088358	-0.699603	-0.664490	89.676491	-13.221818	-152.307677
51112		0.247116	0.088451	-0.699558	-0.664627	89.670991	-13.189377	-152.323041
51113		0.246826	0.088650	-0.699504	-0.664765	89.666341	-13.146916	-152.331441
51114		0.246516	0.088940	-0.699463	-0.664885	89.665665	-13.096322	-152.334684
51115		0.246201	0.089337	-0.699411	-0.665002	89.665603	-13.036573	-152.329612
51116		0.245871	0.089802	-0.699379	-0.665095	89.670248	-12.971162	-152.320819
51117		0.245595	0.090349	-0.699326	-0.665179	89.673190	-12.903210	-152.300561
51118		0.245338	0.090951	-0.699277	-0.665243	89.678037	-12.832955	-152.274256
51119		0.245120	0.091615	-0.699224	-0.665288	89.683659	-12.761063	-152.239622
51120		0.244931	0.092318	-0.699196	-0.665290	89.694387	-12.689918	-152.199831
51121		0.244770	0.093053	-0.699178	-0.665266	89.707482	-12.618951	-152.155245
51122		0.244628	0.093843	-0.699164	-0.665222	89.722538	-12.545667	-152.104638
51123		0.244527	0.094670	-0.699142	-0.665165	89.737297	-12.472770	-152.047452
51124		0.244482	0.095498	-0.699112	-0.665094	89.751035	-12.404436	-151.985156
51125		0.244486	0.096330	-0.699064	-0.665024	89.761910	-12.339196	-151.918036
51126		0.244526	0.097166	-0.699026	-0.664927	89.774709	-12.277302	-151.847690
51127		0.244617	0.098010	-0.698972	-0.664826	89.785260	-12.218602	-151.771921
51128		0.244714	0.098834	-0.698923	-0.664721	89.796158	-12.162127	-151.697329
51129		0.244825	0.099645	-0.698878	-0.664607	89.807675	-12.107992	-151.622610
51130		0.245013	0.100385	-0.698791	-0.664517	89.810839	-12.064399	-151.546156
51131		0.245185	0.101089	-0.698695	-0.664448	89.811821	-12.021685	-151.473871
51132		0.245343	0.101747	-0.698640	-0.664346	89.818548	-11.983072	-151.407005
51133		0.245561	0.102336	-0.698568	-0.664251	89.820750	-11.954165	-151.340265
51134		0.245768	0.102854	-0.698492	-0.664175	89.820816	-11.929564	-151.280033
51135		0.245984	0.103351	-0.698441	-0.664071	89.824488	-11.908276	-151.221059
51136		0.246066	0.103892	-0.698512	-0.663882	89.849178	-11.877221	-151.172104
51137		0.246221	0.104354	-0.698533	-0.663730	89.863926	-11.856538	-151.122312
51138		0.246375	0.104741	-0.698561	-0.663582	89.878066	-11.841662	-151.078740
51139		0.246573	0.105024	-0.698583	-0.663441	89.888538	-11.838268	-151.039422
51140		0.246813	0.105232	-0.698546	-0.663357	89.887651	-11.841638	-151.001592
51141		0.247013	0.105373	-0.698542	-0.663264	89.890508	-11.848134	-150.972924
51142		0.247211	0.105454	-0.698527	-0.663194	89.889959	-11.858459	-150.949168
51143		0.247402	0.105467	-0.698499	-0.663150	89.885711	-11.872811	-150.931124
51144		0.247611	0.105447	-0.698448	-0.663129	89.876891	-11.890236	-150.913817
51145		0.247818	0.105408	-0.698394	-0.663115	89.867032	-11.908742	-150.898140
51146		0.248012	0.105355	-0.698346	-0.663101	89.857904	-11.927545	-150.884744
51147		0.248254	0.105289	-0.698269	-0.663102	89.843690	-11.950175	-150.867836
51148		0.248500	0.105202	-0.698204	-0.663092	89.830908	-11.975388	-150.852365
51149		0.248726	0.105113	-0.698168	-0.663060	89.822723	-12.000041	-150.839299
51150		0.248941	0.105055	-0.698169	-0.662986	89.821569	-12.023105	-150.825189
51151		0.249140	0.105032	-0.698194	-0.662890	89.824976	-12.043098	-150.810246
51152		0.249297	0.104983	-0.698248	-0.662782	89.832619	-12.062594	-150.801352
51153		0.249409	0.104933	-0.698337	-0.662653	89.846011	-12.079876	-150.797133
51154		0.249483	0.104864	-0.698437	-0.662531	89.860628	-12.095688	-150.797709
51155		0.249461	0.104815	-0.698567	-0.662410	89.880715	-12.102982	-150.805677
51156		0.249358	0.104751	-0.698698	-0.662321	89.900608	-12.104413	-150.821740
51157		0.249171	0.104723	-0.698865	-0.662220	89.927216	-12.097402	-150.842856
51158		0.248940	0.104714	-0.699015	-0.662149	89.951606	-12.084423	-150.865998
51159		0.248623	0.104738	-0.699197	-0.662072	89.982073	-12.062875	-150.894593
51160		0.248277	0.104799	-0.699387	-0.661993	90.014592	-12.036257	-150.922753
51161		0.247893	0.104913	-0.699575	-0.661920	90.048197	-12.002309	-150.949845
51162		0.247483	0.105067	-0.699788	-0.661824	90.086883	-11.964119	-150.976517
51163		0.247041	0.105237	-0.700026	-0.661710	90.130097	-11.923047	-151.004943
51164		0.246581	0.105428	-0.700277	-0.661585	90.176057	-11.879290	-151.033503
51165		0.246106	0.105600	-0.700534	-0.661462	90.222407	-11.836015	-151.064861
51166		0.245640	0.105766	-0.700835	-0.661290	90.275893	-11.795652	-151.096646
51167		0.245142	0.105908	-0.701126	-0.661144	90.327000	-11.754033	-151.132769
51168		0.244638	0.106041	-0.701444	-0.660972	90.382455	-11.713588	-151.170654
51169		0.244089	0.106160	-0.701775	-0.660805	90.439674	-11.670887	-151.213521
51170		0.243525	0.106259	-0.702124	-0.660627	90.499379	-11.628998	-151.259631
51171		0.242924	0.106325	-0.702496	-0.660441	90.562139	-11.587444	-151.311823
51172		0.242387	0.106301	-0.702823	-0.660295	90.615186	-11.556258	-151.364844
51173		0.241872	0.106201	-0.703137	-0.660165	90.664379	-11.532129	-151.421998
51174		0.241390	0.106030	-0.703435	-0.660051	90.709150	-11.515606	-151.481584
51175		0.240930	0.105813	-0.703702	-0.659970	90.747601	-11.503036	-151.542601
51176		0.240478	0.105520	-0.703956	-0.659911	90.782123	-11.496295	-151.608684
51177		0.240038	0.105213	-0.704196	-0.659863	90.814178	-11.491107	-151.674750
51178		0.239605	0.104845	-0.704413	-0.659848	90.840762	-11.490126	-151.744656
51179		0.239181	0.104443	-0.704599	-0.659867	90.861564	-11.491090	-151.816057
51180		0.238765	0.104041	-0.704773	-0.659896	90.880422	-11.492418	-151.886647
51181		0.238333	0.103588	-0.704938	-0.659946	90.896761	-11.495787	-151.962474
51182		0.237873	0.103115	-0.705109	-0.660004	90.913451	-11.498363	-152.042489
51183		0.237429	0.102649	-0.705246	-0.660090	90.924905	-11.500505	-152.119843
51184		0.236952	0.102157	-0.705407	-0.660165	90.939748	-11.502725	-152.202556
51185		0.236427	0.101689	-0.705588	-0.660233	90.958358	-11.499685	-152.287871
51186		0.235870	0.101255	-0.705797	-0.660275	90.982626	-11.492486	-152.373493
51187		0.235284	0.100857	-0.706042	-0.660284	91.013480	-11.481586	-152.459225
51188		0.234667	0.100521	-0.706288	-0.660291	91.046232	-11.463162	-152.542659
51189		0.234055	0.100207	-0.706543	-0.660283	91.080911	-11.443997	-152.623995
51190		0.233467	0.099910	-0.706795	-0.660267	91.115504	-11.425414	-152.701802
51191		0.232925	0.099598	-0.707040	-0.660242	91.148747	-11.411716	-152.776860
51192		0.232411	0.099278	-0.707272	-0.660224	91.179570	-11.400334	-152.849915
51193		0.231961	0.098953	-0.707495	-0.660192	91.208851	-11.394684	-152.917799
51194		0.231557	0.098601	-0.707695	-0.660172	91.233789	-11.394125	-152.983573
51195		0.231216	0.098238	-0.707883	-0.660145	91.256576	-11.399218	-153.044670
51196		0.230886	0.097879	-0.708055	-0.660129	91.276855	-11.404495	-153.104273
51197		0.230605	0.097507	-0.708224	-0.660100	91.296434	-11.414838	-153.160704
51198		0.230356	0.097149	-0.708367	-0.660086	91.312095	-11.425881	-153.212989
51199		0.230136	0.096797	-0.708491	-0.660082	91.324705	-11.438175	-153.261897
51200		0.229923	0.096426	-0.708619	-0.660073	91.337600	-11.452674	-153.311894
51201		0.229681	0.096092	-0.708741	-0.660075	91.350338	-11.461725	-153.361214
51202		0.229429	0.095761	-0.708861	-0.660082	91.362858	-11.469568	-153.411223
51203		0.229139	0.095482	-0.708987	-0.660087	91.377523	-11.470345	-153.460268
51204		0.228829	0.095180	-0.709110	-0.660107	91.391063	-11.471001	-153.512790
51205		0.228461	0.094920	-0.709233	-0.660140	91.405739	-11.463457	-153.566921
51206		0.228092	0.094690	-0.709356	-0.660168	91.421051	-11.453607	-153.618590
51207		0.227703	0.094477	-0.709485	-0.660195	91.437529	-11.440874	-153.670736
51208		0.227326	0.094266	-0.709612	-0.660218	91.453903	-11.429014	-153.721654
51209		0.226940	0.094073	-0.709735	-0.660246	91.470006	-11.414892	-153.771699
51210		0.226538	0.093905	-0.709864	-0.660270	91.487594	-11.397692	-153.821314
51211		0.226136	0.093777	-0.710001	-0.660278	91.507567	-11.377676	-153.867788
51212		0.225679	0.093685	-0.710134	-0.660304	91.527460	-11.350085	-153.915836
51213		0.225249	0.093640	-0.710265	-0.660317	91.548087	-11.321175	-153.957898
51214		0.224761	0.093668	-0.710424	-0.660308	91.574843	-11.282773	-153.999208
51215		0.224280	0.093749	-0.710576	-0.660297	91.601576	-11.240756	-154.035614
51216		0.223773	0.093841	-0.710731	-0.660289	91.629109	-11.195681	-154.073261
51217		0.223266	0.093976	-0.710880	-0.660281	91.656591	-11.147106	-154.107325
51218		0.222763	0.094119	-0.711036	-0.660262	91.685435	-11.098702	-154.140547
51219		0.222261	0.094304	-0.711187	-0.660242	91.714222	-11.046787	-154.170071
51220		0.221776	0.094470	-0.711329	-0.660229	91.741227	-10.997607	-154.199673
51221		0.221290	0.094662	-0.711473	-0.660209	91.769142	-10.946360	-154.227121
51222		0.220820	0.094847	-0.711624	-0.660177	91.797987	-10.897337	-154.253911
51223		0.220399	0.095005	-0.711765	-0.660143	91.824661	-10.854220	-154.278550
51224		0.220008	0.095144	-0.711889	-0.660119	91.848149	-10.814488	-154.301895
51225		0.219676	0.095268	-0.712014	-0.660078	91.871333	-10.781006	-154.321556
51226		0.219381	0.095382	-0.712127	-0.660037	91.892558	-10.751164	-154.338788
51227		0.219127	0.095502	-0.712228	-0.659996	91.911761	-10.723847	-154.351849
51228		0.218904	0.095603	-0.712319	-0.659957	91.928996	-10.700268	-154.363767
51229		0.218735	0.095684	-0.712399	-0.659914	91.944123	-10.682524	-154.372414
51230		0.218564	0.095749	-0.712482	-0.659872	91.959173	-10.665909	-154.382763
51231		0.218416	0.095798	-0.712565	-0.659824	91.973974	-10.652490	-154.392333
51232		0.218274	0.095840	-0.712641	-0.659783	91.987507	-10.639782	-154.402006
51233		0.218152	0.095878	-0.712714	-0.659739	92.000413	-10.629070	-154.410182
51234		0.218022	0.095907	-0.712782	-0.659705	92.012245	-10.618161	-154.419740
51235		0.217908	0.095942	-0.712824	-0.659691	92.020031	-10.607267	-154.426982
51236		0.217794	0.095992	-0.712867	-0.659675	92.028254	-10.595230	-154.433192
51237		0.217665	0.096036	-0.712915	-0.659660	92.037097	-10.582451	-154.441097
51238		0.217540	0.096073	-0.712956	-0.659651	92.044683	-10.570395	-154.449179
51239		0.217439	0.096080	-0.712991	-0.659646	92.050531	-10.562382	-154.457580
51240		0.217344	0.096067	-0.713030	-0.659637	92.056708	-10.556626	-154.467132
51241		0.217251	0.096041	-0.713061	-0.659638	92.061223	-10.551697	-154.477457
51242		0.217146	0.096000	-0.713091	-0.659646	92.065303	-10.546735	-154.490038
51243		0.217057	0.095950	-0.713104	-0.659669	92.066272	-10.543250	-154.501761
51244		0.216980	0.095887	-0.713102	-0.659705	92.064518	-10.541220	-154.513265
51245		0.216900	0.095834	-0.713117	-0.659723	92.065879	-10.538879	-154.524516
51246		0.216785	0.095768	-0.713131	-0.659756	92.066643	-10.534369	-154.539729
51247		0.216672	0.095702	-0.713158	-0.659773	92.069619	-10.530507	-154.554953
51248		0.216533	0.095619	-0.713200	-0.659785	92.074790	-10.526256	-154.573922
51249		0.216369	0.095533	-0.713252	-0.659796	92.081409	-10.520408	-154.595345
51250		0.216179	0.095445	-0.713318	-0.659798	92.090489	-10.513045	-154.619338
51251		0.215968	0.095345	-0.713390	-0.659804	92.100148	-10.505009	-154.646198
51252		0.215759	0.095275	-0.713462	-0.659805	92.110459	-10.494715	-154.670403
51253		0.215541	0.095195	-0.713515	-0.659830	92.117522	-10.483796	-154.695922
51254		0.215311	0.095161	-0.713555	-0.659867	92.123284	-10.467945	-154.718515
51255		0.215091	0.095109	-0.713597	-0.659901	92.128990	-10.454362	-154.741659
51256		0.214888	0.095064	-0.713620	-0.659950	92.131649	-10.440929	-154.762698
51257		0.214686	0.095035	-0.713648	-0.659989	92.135566	-10.426678	-154.782289
51258		0.214494	0.095033	-0.713678	-0.660018	92.140577	-10.411278	-154.798917
51259		0.214292	0.095062	-0.713701	-0.660055	92.144858	-10.392424	-154.813734
51260		0.214121	0.095131	-0.713728	-0.660072	92.150698	-10.373403	-154.822774
51261		0.213944	0.095191	-0.713736	-0.660112	92.153215	-10.353804	-154.832767
51262		0.213798	0.095261	-0.713734	-0.660151	92.154336	-10.335757	-154.839292
51263		0.213663	0.095316	-0.713726	-0.660195	92.154166	-10.319654	-154.845928
51264		0.213577	0.095374	-0.713710	-0.660232	92.152752	-10.307214	-154.848143
51265		0.213519	0.095394	-0.713680	-0.660280	92.148165	-10.299618	-154.850909
51266		0.213462	0.095401	-0.713660	-0.660320	92.144832	-10.293395	-154.854837
51267		0.213424	0.095386	-0.713647	-0.660348	92.142381	-10.290743	-154.859027
51268		0.213349	0.095414	-0.713642	-0.660373	92.142147	-10.281973	-154.862991
51269		0.213313	0.095431	-0.713621	-0.660405	92.138973	-10.276777	-154.864300
51270		0.213254	0.095450	-0.713611	-0.660432	92.137687	-10.269872	-154.867497
51271		0.213244	0.095470	-0.713587	-0.660459	92.134106	-10.266588	-154.866354
51272		0.213224	0.095464	-0.713570	-0.660485	92.131034	-10.264639	-154.868344
51273		0.213201	0.095439	-0.713559	-0.660507	92.128752	-10.264173	-154.872111
51274		0.213194	0.095405	-0.713538	-0.660538	92.124399	-10.265285	-154.875145
51275		0.213185	0.095368	-0.713511	-0.660575	92.119221	-10.266304	-154.878532
51276		0.213173	0.095315	-0.713487	-0.660612	92.114010	-10.268424	-154.883461
51277		0.213174	0.095262	-0.713449	-0.660661	92.106536	-10.271118	-154.887222
51278		0.213141	0.095226	-0.713423	-0.660705	92.101403	-10.269993	-154.892590
51279		0.213137	0.095210	-0.713385	-0.660750	92.094653	-10.269400	-154.893662
51280		0.213131	0.095166	-0.713345	-0.660801	92.087061	-10.270844	-154.897137
51281		0.213161	0.095133	-0.713281	-0.660865	92.075763	-10.273433	-154.896410
51282		0.213210	0.095099	-0.713205	-0.660936	92.062469	-10.277511	-154.894024
51283		0.213288	0.095056	-0.713118	-0.661011	92.047040	-10.284342	-154.889750
51284		0.213375	0.095054	-0.713022	-0.661086	92.031085	-10.288540	-154.881254
51285		0.213492	0.095030	-0.712904	-0.661179	92.011003	-10.296101	-154.871778
51286		0.213587	0.095009	-0.712797	-0.661267	91.992795	-10.301959	-154.863978
51287		0.213717	0.095002	-0.712677	-0.661355	91.972755	-10.309339	-154.851948
51288		0.213834	0.094980	-0.712564	-0.661442	91.953532	-10.316992	-154.842378
51289		0.213955	0.094961	-0.712442	-0.661538	91.932845	-10.324339	-154.832132
51290		0.214100	0.094944	-0.712318	-0.661627	91.911967	-10.333552	-154.819568
51291		0.214230	0.094923	-0.712191	-0.661725	91.890449	-10.341732	-154.808603
51292		0.214366	0.094882	-0.712061	-0.661826	91.868107	-10.351862	-154.798721
51293		0.214530	0.094861	-0.711901	-0.661948	91.841060	-10.361766	-154.784379
51294		0.214665	0.094832	-0.711775	-0.662044	91.819514	-10.370965	-154.773613
51295		0.214841	0.094809	-0.711635	-0.662141	91.795917	-10.382705	-154.758742
51296		0.215013	0.094785	-0.711490	-0.662244	91.771369	-10.394103	-154.744204
51297		0.215205	0.094768	-0.711344	-0.662340	91.746958	-10.406577	-154.727332
51298		0.215402	0.094744	-0.711215	-0.662419	91.724975	-10.420616	-154.710966
51299		0.215605	0.094726	-0.711090	-0.662489	91.704010	-10.434926	-154.693561
51300		0.215819	0.094709	-0.710966	-0.662556	91.683084	-10.450121	-154.675248
51301		0.216023	0.094692	-0.710867	-0.662598	91.666393	-10.465428	-154.658027
51302		0.216246	0.094684	-0.710759	-0.662641	91.648496	-10.481295	-154.638361
51303		0.216448	0.094664	-0.710657	-0.662688	91.631174	-10.496478	-154.621643
51304		0.216651	0.094661	-0.710559	-0.662727	91.614942	-10.510615	-154.603382
51305		0.216853	0.094655	-0.710464	-0.662765	91.599081	-10.524957	-154.585575
51306		0.217061	0.094658	-0.710368	-0.662798	91.583428	-10.539162	-154.566450
51307		0.217247	0.094677	-0.710278	-0.662832	91.568870	-10.550480	-154.547994
51308		0.217473	0.094674	-0.710180	-0.662862	91.552774	-10.566653	-154.527765
51309		0.217690	0.094672	-0.710094	-0.662884	91.538523	-10.582317	-154.508421
51310		0.217889	0.094692	-0.710040	-0.662873	91.530137	-10.595967	-154.489308
51311		0.218104	0.094760	-0.709978	-0.662859	91.521391	-10.607083	-154.464860
51312		0.218306	0.094900	-0.709931	-0.662823	91.516771	-10.612168	-154.435767
51313		0.218539	0.095077	-0.709905	-0.662750	91.516283	-10.617937	-154.401560
51314		0.218838	0.095250	-0.709879	-0.662653	91.515952	-10.629741	-154.361907
51315		0.219244	0.095379	-0.709859	-0.662521	91.515711	-10.654332	-154.317110
51316		0.219819	0.095430	-0.709816	-0.662370	91.509890	-10.698614	-154.263891
51317		0.220576	0.095372	-0.709720	-0.662229	91.493049	-10.764809	-154.203419
51318		0.221563	0.095186	-0.709536	-0.662124	91.458800	-10.857357	-154.132572
51319		0.222726	0.094913	-0.709282	-0.662045	91.411315	-10.968971	-154.052770
51320		0.224029	0.094575	-0.708966	-0.661992	91.352083	-11.095315	-153.965278
51321		0.225411	0.094222	-0.708582	-0.661984	91.281345	-11.227049	-153.871006
51322		0.226835	0.093856	-0.708145	-0.662017	91.201521	-11.361343	-153.773193
51323		0.228307	0.093464	-0.707689	-0.662055	91.117941	-11.500982	-153.672865
51324		0.229822	0.093000	-0.707214	-0.662103	91.029785	-11.649021	-153.574122
51325		0.231381	0.092478	-0.706698	-0.662184	90.933611	-11.803632	-153.475126
51326		0.232949	0.091914	-0.706181	-0.662265	90.836410	-11.962109	-153.378547
51327		0.234513	0.091349	-0.705650	-0.662357	90.736830	-12.119833	-153.281637
51328		0.236032	0.090788	-0.705149	-0.662428	90.642455	-12.274402	-153.188453
51329		0.237481	0.090243	-0.704654	-0.662512	90.549262	-12.421977	-153.099720
51330		0.238885	0.089733	-0.704174	-0.662586	90.459410	-12.563543	-153.011895
51331		0.240228	0.089247	-0.703706	-0.662664	90.371984	-12.698409	-152.927361
51332		0.241481	0.088824	-0.703262	-0.662736	90.290026	-12.821551	-152.845645
51333		0.242688	0.088445	-0.702833	-0.662802	90.211181	-12.937946	-152.764376
51334		0.243875	0.088072	-0.702398	-0.662877	90.131662	-13.051819	-152.684065
51335		0.245063	0.087703	-0.701945	-0.662967	90.049276	-13.164816	-152.602759
51336		0.246203	0.087363	-0.701513	-0.663046	89.970966	-13.272221	-152.523483
51337		0.247326	0.087073	-0.701084	-0.663121	89.894047	-13.374353	-152.441627
51338		0.248408	0.086821	-0.700663	-0.663195	89.819299	-13.470335	-152.360158
51339		0.249435	0.086658	-0.700260	-0.663255	89.749411	-13.555459	-152.276542
51340		0.250414	0.086551	-0.699868	-0.663315	89.682326	-13.632375	-152.192813
51341		0.251325	0.086545	-0.699506	-0.663353	89.622405	-13.696974	-152.107327
51342		0.252146	0.086596	-0.699201	-0.663356	89.573083	-13.751608	-152.026298
51343		0.252975	0.086686	-0.698907	-0.663338	89.526354	-13.804381	-151.941463
51344		0.253835	0.086734	-0.698585	-0.663343	89.474007	-13.861902	-151.856686
51345		0.254720	0.086769	-0.698246	-0.663356	89.418651	-13.921774	-151.770300
51346		0.255643	0.086768	-0.697925	-0.663339	89.365590	-13.988449	-151.683810
51347		0.256599	0.086750	-0.697598	-0.663317	89.311071	-14.058902	-151.595410
51348		0.257547	0.086699	-0.697262	-0.663309	89.254433	-14.130942	-151.510117
51349		0.258501	0.086654	-0.696919	-0.663304	89.196736	-14.202669	-151.423478
51350		0.259463	0.086577	-0.696591	-0.663283	89.140854	-14.278082	-151.338859
51351		0.260406	0.086461	-0.696264	-0.663272	89.084405	-14.354928	-151.258914
51352		0.261407	0.086295	-0.695923	-0.663257	89.024467	-14.440099	-151.177362
51353		0.262469	0.086063	-0.695531	-0.663279	88.954738	-14.533342	-151.094495
51354		0.263563	0.085790	-0.695124	-0.663308	88.881635	-14.631862	-151.011525
51355		0.264667	0.085487	-0.694721	-0.663329	88.808602	-14.733782	-150.929942
51356		0.265813	0.085139	-0.694309	-0.663347	88.733101	-14.842362	-150.847759
51357		0.266945	0.084801	-0.693916	-0.663348	88.660828	-14.949598	-150.766216
51358		0.267979	0.084524	-0.693588	-0.663308	88.600762	-15.046519	-150.689726
51359		0.268962	0.084321	-0.693329	-0.663208	88.553421	-15.136088	-150.613211
51360		0.269914	0.084138	-0.693127	-0.663055	88.515874	-15.224044	-150.538908
51361		0.270932	0.083936	-0.692932	-0.662869	88.479014	-15.319303	-150.460240
51362		0.271983	0.083735	-0.692735	-0.662670	88.441871	-15.417301	-150.378432
51363		0.273036	0.083551	-0.692570	-0.662433	88.410195	-15.515522	-150.295709
51364		0.274081	0.083355	-0.692447	-0.662154	88.385287	-15.615802	-150.215292
51365		0.275073	0.083176	-0.692364	-0.661852	88.367352	-15.711959	-150.139217
51366		0.276011	0.083012	-0.692321	-0.661528	88.356145	-15.803892	-150.067365
51367		0.276832	0.082882	-0.692323	-0.661198	88.353338	-15.885170	-150.004260
51368		0.277540	0.082792	-0.692373	-0.660860	88.359278	-15.955743	-149.949080
51369		0.278122	0.082738	-0.692454	-0.660538	88.371004	-16.013920	-149.903089
51370		0.278574	0.082701	-0.692560	-0.660241	88.387422	-16.060605	-149.867865
51371		0.278932	0.082700	-0.692664	-0.659980	88.404384	-16.096294	-149.838248
51372		0.279195	0.082675	-0.692752	-0.659780	88.418108	-16.124843	-149.818636
51373		0.279386	0.082644	-0.692847	-0.659604	88.433045	-16.147931	-149.806049
51374		0.279508	0.082597	-0.692917	-0.659484	88.443557	-16.165272	-149.800214
51375		0.279550	0.082531	-0.693007	-0.659379	88.457128	-16.177970	-149.803605
51376		0.279518	0.082455	-0.693108	-0.659297	88.472166	-16.185438	-149.814566
51377		0.279436	0.082373	-0.693189	-0.659256	88.483986	-16.188267	-149.830017
51378		0.279306	0.082287	-0.693253	-0.659254	88.492967	-16.186483	-149.849739
51379		0.279120	0.082243	-0.693310	-0.659279	88.501571	-16.176195	-149.871023
51380		0.278871	0.082217	-0.693371	-0.659324	88.511191	-16.159150	-149.896593
51381		0.278603	0.082253	-0.693458	-0.659341	88.526497	-16.136935	-149.919576
51382		0.278313	0.082318	-0.693534	-0.659376	88.540551	-16.110022	-149.942094
51383		0.278027	0.082445	-0.693633	-0.659376	88.559738	-16.079689	-149.959857
51384		0.277752	0.082601	-0.693735	-0.659365	88.579897	-16.048019	-149.974433
51385		0.277486	0.082797	-0.693860	-0.659322	88.604598	-16.015228	-149.985621
51386		0.277242	0.083019	-0.693996	-0.659253	88.631786	-15.982766	-149.992895
51387		0.277035	0.083248	-0.694136	-0.659163	88.659712	-15.953225	-149.996564
51388		0.276830	0.083510	-0.694288	-0.659057	88.690197	-15.921742	-149.997640
51389		0.276619	0.083790	-0.694435	-0.658955	88.720349	-15.888104	-149.997759
51390		0.276438	0.084082	-0.694585	-0.658836	88.751202	-15.856350	-149.994204
51391		0.276249	0.084378	-0.694724	-0.658730	88.780372	-15.823116	-149.990871
51392		0.276052	0.084667	-0.694851	-0.658642	88.807361	-15.789266	-149.988572
51393		0.275883	0.084947	-0.694957	-0.658565	88.830782	-15.757527	-149.983982
51394		0.275703	0.085229	-0.695050	-0.658505	88.852121	-15.724217	-149.979891
51395		0.275528	0.085490	-0.695127	-0.658463	88.870417	-15.692288	-149.976690
51396		0.275347	0.085743	-0.695207	-0.658422	88.888870	-15.660488	-149.974672
51397		0.275163	0.086006	-0.695289	-0.658378	88.908074	-15.627805	-149.972253
51398		0.275000	0.086224	-0.695355	-0.658347	88.923651	-15.599674	-149.970984
51399		0.274838	0.086430	-0.695435	-0.658304	88.941254	-15.573265	-149.971015
51400		0.274711	0.086596	-0.695482	-0.658285	88.952507	-15.551401	-149.970188
51401		0.274624	0.086757	-0.695513	-0.658267	88.961137	-15.532820	-149.966002
51402		0.274563	0.086910	-0.695531	-0.658254	88.967243	-15.516539	-149.959796
51403		0.274562	0.087025	-0.695534	-0.658236	88.970280	-15.507743	-149.950948
51404		0.274569	0.087152	-0.695534	-0.658216	88.972897	-15.498547	-149.940409
51405		0.274635	0.087211	-0.695513	-0.658203	88.970677	-15.498844	-149.929513
51406		0.274704	0.087260	-0.695501	-0.658181	88.969603	-15.500601	-149.919328
51407		0.274772	0.087293	-0.695477	-0.658174	88.966259	-15.502937	-149.910195
51408		0.274837	0.087322	-0.695462	-0.658159	88.964381	-15.505703	-149.901879
51409		0.274892	0.087352	-0.695447	-0.658147	88.962572	-15.507560	-149.894343
51410		0.274944	0.087363	-0.695431	-0.658141	88.960078	-15.510411	-149.888504
51411		0.275013	0.087340	-0.695404	-0.658144	88.955113	-15.517087	-149.883687
51412		0.275063	0.087322	-0.695370	-0.658161	88.949174	-15.521353	-149.879885
51413		0.275157	0.087245	-0.695311	-0.658195	88.937690	-15.532848	-149.876407
51414		0.275213	0.087205	-0.695258	-0.658233	88.928045	-15.538446	-149.873370
51415		0.275287	0.087161	-0.695189	-0.658280	88.915816	-15.545316	-149.868890
51416		0.275359	0.087129	-0.695130	-0.658317	88.905247	-15.551470	-149.863738
51417		0.275430	0.087110	-0.695065	-0.658357	88.894141	-15.556294	-149.857492
51418		0.275481	0.087110	-0.695005	-0.658400	88.884180	-15.558070	-149.851798
51419		0.275524	0.087112	-0.694956	-0.658434	88.876045	-15.559532	-149.846705
51420		0.275536	0.087146	-0.694919	-0.658462	88.870761	-15.556358	-149.842256
51421		0.275496	0.087183	-0.694894	-0.658501	88.867365	-15.548935	-149.842323
51422		0.275487	0.087231	-0.694857	-0.658538	88.862303	-15.542760	-149.838659
51423		0.275430	0.087276	-0.694812	-0.658603	88.855816	-15.532383	-149.839210
51424		0.275368	0.087330	-0.694757	-0.658679	88.847988	-15.520474	-149.839328
51425		0.275301	0.087407	-0.694698	-0.658760	88.839854	-15.506206	-149.838079
51426		0.275201	0.087483	-0.694653	-0.658839	88.834082	-15.489630	-149.840121
51427		0.275096	0.087566	-0.694614	-0.658912	88.829581	-15.472415	-149.842112
51428		0.274983	0.087652	-0.694589	-0.658975	88.827285	-15.454878	-149.844946
51429		0.274847	0.087752	-0.694563	-0.659046	88.825156	-15.434191	-149.848594
51430		0.274716	0.087846	-0.694530	-0.659123	88.821746	-15.414151	-149.852276
51431		0.274549	0.087935	-0.694501	-0.659211	88.819037	-15.391555	-149.859565
51432		0.274385	0.088014	-0.694481	-0.659289	88.817530	-15.370305	-149.867469
51433		0.274213	0.088096	-0.694472	-0.659359	88.817896	-15.348707	-149.876107
51434		0.274026	0.088188	-0.694467	-0.659430	88.819079	-15.325194	-149.885489
51435		0.273824	0.088316	-0.694484	-0.659479	88.824761	-15.298546	-149.893784
51436		0.273607	0.088409	-0.694521	-0.659518	88.832884	-15.274060	-149.906496
51437		0.273356	0.088530	-0.694572	-0.659552	88.844059	-15.245239	-149.920364
51438		0.273104	0.088648	-0.694640	-0.659569	88.857845	-15.217172	-149.934886
51439		0.272823	0.088757	-0.694722	-0.659584	88.873918	-15.188011	-149.952981
51440		0.272551	0.088864	-0.694801	-0.659599	88.889220	-15.159605	-149.970268
51441		0.272273	0.088947	-0.694872	-0.659628	88.902920	-15.132098	-149.989823
51442		0.271999	0.089008	-0.694937	-0.659664	88.915051	-15.106412	-150.010649
51443		0.271739	0.089059	-0.694991	-0.659707	88.925196	-15.082303	-150.030851
51444		0.271498	0.089061	-0.695041	-0.659754	88.933560	-15.063336	-150.052995
51445		0.271254	0.089061	-0.695094	-0.659799	88.942355	-15.044525	-150.075684
51446		0.271048	0.089024	-0.695113	-0.659868	88.944752	-15.030275	-150.097118
51447		0.270839	0.088998	-0.695134	-0.659935	88.947849	-15.015097	-150.118096
51448		0.270654	0.088945	-0.695154	-0.659997	88.950028	-15.003953	-150.139081
51449		0.270481	0.088893	-0.695170	-0.660058	88.951707	-14.993623	-150.158678
51450		0.270336	0.088851	-0.695187	-0.660105	88.953640	-14.984999	-150.175135
51451		0.270217	0.088812	-0.695198	-0.660147	88.954703	-14.978168	-150.188982
51452		0.270107	0.088743	-0.695214	-0.660185	88.955867	-14.974660	-150.204432
51453		0.270033	0.088705	-0.695203	-0.660232	88.953296	-14.970644	-150.213781
51454		0.269957	0.088680	-0.695208	-0.660261	88.953624	-14.966238	-150.222509
51455		0.269866	0.088648	-0.695219	-0.660291	88.954679	-14.961210	-150.233226
51456		0.269788	0.088636	-0.695224	-0.660319	88.955353	-14.955594	-150.241171
51457		0.269711	0.088637	-0.695239	-0.660335	88.957830	-14.949469	-150.248299
51458		0.269633	0.088653	-0.695251	-0.660352	88.960205	-14.941985	-150.254111
51459		0.269563	0.088693	-0.695264	-0.660362	88.963155	-14.933393	-150.257390
51460		0.269501	0.088757	-0.695283	-0.660358	88.967735	-14.923857	-150.258286
51461		0.269418	0.088868	-0.695299	-0.660360	88.972862	-14.908892	-150.257267
51462		0.269337	0.089024	-0.695330	-0.660339	88.981363	-14.891136	-150.252863
51463		0.269302	0.089197	-0.695364	-0.660295	88.990588	-14.876302	-150.243103
51464		0.269264	0.089367	-0.695414	-0.660235	89.002509	-14.862131	-150.234073
51465		0.269243	0.089541	-0.695479	-0.660152	89.016936	-14.849716	-150.223588
51466		0.269231	0.089714	-0.695539	-0.660069	89.030656	-14.837994	-150.212286
51467		0.269217	0.089897	-0.695603	-0.659983	89.045062	-14.825423	-150.200500
51468		0.269167	0.090078	-0.695676	-0.659901	89.061151	-14.810397	-150.192167
51469		0.269128	0.090258	-0.695736	-0.659829	89.074940	-14.795753	-150.182711
51470		0.269062	0.090433	-0.695801	-0.659763	89.089526	-14.779430	-150.176105
51471		0.268994	0.090575	-0.695856	-0.659715	89.101590	-14.764920	-150.172050
51472		0.268897	0.090696	-0.695916	-0.659673	89.114268	-14.749846	-150.172355
51473		0.268804	0.090792	-0.695979	-0.659631	89.126775	-14.737206	-150.174234
51474		0.268726	0.090850	-0.696031	-0.659601	89.136554	-14.728241	-150.177619
51475		0.268670	0.090876	-0.696075	-0.659574	89.144447	-14.723206	-150.181426
51476		0.268612	0.090890	-0.696110	-0.659558	89.150554	-14.718642	-150.186053
51477		0.268586	0.090885	-0.696136	-0.659543	89.154617	-14.717896	-150.189247
51478		0.268569	0.090907	-0.696160	-0.659520	89.159175	-14.715755	-150.189501
51479		0.268566	0.090917	-0.696185	-0.659494	89.163515	-14.715814	-150.189584
51480		0.268568	0.090949	-0.696210	-0.659463	89.168281	-14.714571	-150.187313
51481		0.268574	0.090986	-0.696244	-0.659419	89.174674	-14.713791	-150.184584
51482		0.268578	0.091020	-0.696280	-0.659376	89.181287	-14.713046	-150.182295
51483		0.268574	0.091057	-0.696326	-0.659323	89.189804	-14.711886	-150.180634
51484		0.268603	0.091066	-0.696362	-0.659271	89.195958	-14.715266	-150.178036
51485		0.268602	0.091078	-0.696398	-0.659232	89.202123	-14.715795	-150.177881
51486		0.268588	0.091088	-0.696452	-0.659180	89.211211	-14.716151	-150.179470
51487		0.268574	0.091082	-0.696490	-0.659146	89.217423	-14.716985	-150.181901
51488		0.268529	0.091068	-0.696531	-0.659123	89.223876	-14.715981	-150.187797
51489		0.268478	0.091072	-0.696575	-0.659097	89.231242	-14.713098	-150.192866
51490		0.268407	0.091112	-0.696623	-0.659070	89.239947	-14.705961	-150.196912
51491		0.268332	0.091159	-0.696669	-0.659045	89.248670	-14.697896	-150.200746
51492		0.268249	0.091255	-0.696713	-0.659019	89.258045	-14.685209	-150.201414
51493		0.268175	0.091375	-0.696787	-0.658954	89.272926	-14.672812	-150.199923
51494		0.268094	0.091517	-0.696841	-0.658910	89.284958	-14.657144	-150.196992
51495		0.268030	0.091666	-0.696917	-0.658835	89.300670	-14.643538	-150.192405
51496		0.267950	0.091836	-0.696999	-0.658757	89.317999	-14.627076	-150.187655
51497		0.267863	0.092027	-0.697077	-0.658684	89.335073	-14.608283	-150.181818
51498		0.267777	0.092219	-0.697160	-0.658604	89.352999	-14.589608	-150.175976
51499		0.267696	0.092404	-0.697237	-0.658530	89.369800	-14.571813	-150.170113
51500		0.267605	0.092560	-0.697294	-0.658484	89.382810	-14.554407	-150.166939
51501		0.267540	0.092724	-0.697343	-0.658435	89.394513	-14.538423	-150.160733
51502		0.267483	0.092827	-0.697379	-0.658406	89.402735	-14.527159	-150.158298
51503		0.267417	0.092929	-0.697423	-0.658372	89.412197	-14.515441	-150.156949
51504		0.267377	0.092995	-0.697453	-0.658347	89.418637	-14.508283	-150.155876
51505		0.267337	0.093029	-0.697483	-0.658327	89.424381	-14.503442	-150.157284
51506		0.267291	0.093058	-0.697512	-0.658311	89.429756	-14.498499	-150.159574
51507		0.267250	0.093062	-0.697543	-0.658294	89.434990	-14.495974	-150.163549
51508		0.267192	0.093047	-0.697563	-0.658298	89.438070	-14.493063	-150.170201
51509		0.267140	0.092991	-0.697594	-0.658294	89.441959	-14.494058	-150.179833
51510		0.267075	0.092953	-0.697598	-0.658322	89.441762	-14.491486	-150.188519
51511		0.267017	0.092892	-0.697608	-0.658344	89.442005	-14.491539	-150.198635
51512		0.266952	0.092838	-0.697612	-0.658373	89.441532	-14.490172	-150.208672
51513		0.266901	0.092771	-0.697613	-0.658402	89.440275	-14.490867	-150.218509
51514		0.266853	0.092696	-0.697615	-0.658429	89.438962	-14.492555	-150.228591
51515		0.266798	0.092623	-0.697629	-0.658448	89.439551	-14.493871	-150.239479
51516		0.266752	0.092552	-0.697634	-0.658471	89.438925	-14.495583	-150.249211
51517		0.266707	0.092493	-0.697642	-0.658489	89.438870	-14.496488	-150.258023
51518		0.266680	0.092430	-0.697640	-0.658511	89.437229	-14.498849	-150.265320
51519		0.266632	0.092382	-0.697644	-0.658533	89.436828	-14.498490	-150.273361
51520		0.266594	0.092322	-0.697637	-0.658564	89.434363	-14.499507	-150.281246
51521		0.266550	0.092265	-0.697630	-0.658598	89.431863	-14.499686	-150.289520
51522		0.266484	0.092181	-0.697620	-0.658647	89.428420	-14.499965	-150.301708
51523		0.266413	0.092090	-0.697610	-0.658698	89.424787	-14.500387	-150.314886
51524		0.266330	0.091983	-0.697608	-0.658750	89.422050	-14.501198	-150.330562
51525		0.266221	0.091869	-0.697612	-0.658805	89.420281	-14.500574	-150.349202
51526		0.266124	0.091759	-0.697600	-0.658872	89.416000	-14.500030	-150.366185
51527		0.266033	0.091655	-0.697609	-0.658914	89.415133	-14.500471	-150.382496
51528		0.265942	0.091568	-0.697618	-0.658953	89.414766	-14.499647	-150.397550
51529		0.265868	0.091486	-0.697619	-0.658993	89.413232	-14.499527	-150.410493
51530		0.265795	0.091438	-0.697621	-0.659027	89.412539	-14.496931	-150.420700
51531		0.265748	0.091406	-0.697625	-0.659047	89.412389	-14.495408	-150.427454
51532		0.265737	0.091363	-0.697631	-0.659051	89.412447	-14.498060	-150.431949
51533		0.265730	0.091340	-0.697631	-0.659056	89.412005	-14.499212	-150.434283
51534		0.265704	0.091308	-0.697643	-0.659058	89.413335	-14.499910	-150.439348
51535		0.265708	0.091313	-0.697653	-0.659047	89.414945	-14.500219	-150.438861
51536		0.265678	0.091291	-0.697684	-0.659028	89.419671	-14.500720	-150.443821
51537		0.265633	0.091289	-0.697727	-0.659001	89.426744	-14.498793	-150.448839
51538		0.265569	0.091277	-0.697774	-0.658979	89.434292	-14.496160	-150.456337
51539		0.265477	0.091287	-0.697821	-0.658965	89.442183	-14.489387	-150.464500
51540		0.265363	0.091271	-0.697858	-0.658974	89.447938	-14.482339	-150.476423
51541		0.265270	0.091266	-0.697871	-0.658998	89.450081	-14.475170	-150.485306
51542		0.265141	0.091272	-0.697914	-0.659004	89.457266	-14.465241	-150.496981
51543		0.265028	0.091286	-0.697944	-0.659015	89.462676	-14.455765	-150.506425
51544		0.264905	0.091300	-0.697989	-0.659015	89.470417	-14.445856	-150.516965
51545		0.264820	0.091320	-0.698027	-0.659007	89.477054	-14.438558	-150.523555
51546		0.264731	0.091348	-0.698073	-0.658990	89.485288	-14.430653	-150.530120
51547		0.264636	0.091397	-0.698145	-0.658945	89.498217	-14.421721	-150.535997
51548		0.264544	0.091466	-0.698213	-0.658900	89.511008	-14.411313	-150.539905
51549		0.264449	0.091515	-0.698284	-0.658856	89.523935	-14.402375	-150.545775
51550		0.264351	0.091579	-0.698343	-0.658824	89.534950	-14.391552	-150.550482
51551		0.264266	0.091613	-0.698387	-0.658806	89.543057	-14.383440	-150.556043
51552		0.264172	0.091635	-0.698431	-0.658795	89.550750	-14.375410	-150.563482
51553		0.264097	0.091655	-0.698448	-0.658804	89.554036	-14.368129	-150.568736
51554		0.264018	0.091670	-0.698463	-0.658817	89.556934	-14.360774	-150.574855
51555		0.263953	0.091688	-0.698475	-0.658828	89.559323	-14.354245	-150.579320
51556		0.263875	0.091690	-0.698484	-0.658850	89.560727	-14.347662	-150.586226
51557		0.263844	0.091694	-0.698487	-0.658859	89.561376	-14.344765	-150.588587
51558		0.263812	0.091715	-0.698491	-0.658864	89.562546	-14.340620	-150.589850
51559		0.263774	0.091709	-0.698511	-0.658859	89.565663	-14.338591	-150.594036
51560		0.263746	0.091732	-0.698533	-0.658844	89.569805	-14.335323	-150.595064
51561		0.263738	0.091751	-0.698543	-0.658833	89.571960	-14.333598	-150.594584
51562		0.263717	0.091756	-0.698558	-0.658826	89.574427	-14.332046	-150.596198
51563		0.263698	0.091760	-0.698581	-0.658808	89.578449	-14.331085	-150.598055
51564		0.263640	0.091772	-0.698631	-0.658777	89.586913	-14.327226	-150.603103
51565		0.263588	0.091762	-0.698675	-0.658752	89.593994	-14.325413	-150.609385
51566		0.263478	0.091762	-0.698752	-0.658715	89.606672	-14.319045	-150.620540
51567		0.263362	0.091769	-0.698828	-0.658679	89.619403	-14.311684	-150.631544
51568		0.263227	0.091782	-0.698908	-0.658647	89.632930	-14.302371	-150.643824
51569		0.263075	0.091800	-0.698982	-0.658626	89.645570	-14.290899	-150.657167
51570		0.262926	0.091823	-0.699052	-0.658608	89.657781	-14.279173	-150.669850
51571		0.262768	0.091850	-0.699112	-0.658604	89.668242	-14.265963	-150.682661
51572		0.262611	0.091894	-0.699176	-0.658592	89.679789	-14.251714	-150.694137
51573		0.262455	0.091951	-0.699242	-0.658577	89.691969	-14.236532	-150.704629
51574		0.262320	0.092010	-0.699321	-0.658538	89.706309	-14.223658	-150.713278
51575		0.262171	0.092062	-0.699404	-0.658502	89.721258	-14.210296	-150.723768
51576		0.262033	0.092117	-0.699484	-0.658464	89.735651	-14.197454	-150.732986
51577		0.261910	0.092174	-0.699556	-0.658429	89.748785	-14.185450	-150.740607
51578		0.261788	0.092219	-0.699640	-0.658381	89.763732	-14.175011	-150.749413
51579		0.261646	0.092265	-0.699715	-0.658352	89.777176	-14.162282	-150.759615
51580		0.261507	0.092287	-0.699814	-0.658299	89.793982	-14.152728	-150.771850
51581		0.261355	0.092306	-0.699888	-0.658278	89.806589	-14.141191	-150.785138
51582		0.261182	0.092328	-0.699973	-0.658253	89.821176	-14.128121	-150.800063
51583		0.261011	0.092335	-0.700050	-0.658238	89.834090	-14.115853	-150.815931
51584		0.260839	0.092345	-0.700124	-0.658226	89.846606	-14.103381	-150.831572
51585		0.260657	0.092353	-0.700214	-0.658201	89.861629	-14.090694	-150.848472
51586		0.260498	0.092362	-0.700301	-0.658171	89.876178	-14.079851	-150.863356
51587		0.260343	0.092362	-0.700397	-0.658129	89.892184	-14.070500	-150.878692
51588		0.260166	0.092350	-0.700503	-0.658088	89.909409	-14.060451	-150.897098
51589		0.259992	0.092339	-0.700603	-0.658052	89.925720	-14.050362	-150.915011
51590		0.259819	0.092303	-0.700690	-0.658033	89.939291	-14.041758	-150.934640
51591		0.259647	0.092265	-0.700794	-0.657996	89.955697	-14.034074	-150.954608
51592		0.259467	0.092219	-0.700882	-0.657979	89.969285	-14.025603	-150.975564
51593		0.259280	0.092161	-0.700978	-0.657959	89.983901	-14.017733	-150.998361
51594		0.259075	0.092083	-0.701075	-0.657948	89.998208	-14.009907	-151.024169
51595		0.258863	0.091978	-0.701187	-0.657927	90.014473	-14.004209	-151.053162
51596		0.258659	0.091899	-0.701298	-0.657900	90.031163	-13.997104	-151.079280
51597		0.258436	0.091809	-0.701429	-0.657859	90.051010	-13.990158	-151.108272
51598		0.258231	0.091715	-0.701538	-0.657838	90.066916	-13.983967	-151.135659
51599		0.258003	0.091634	-0.701655	-0.657813	90.084577	-13.975276	-151.164117
51600		0.257795	0.091549	-0.701763	-0.657791	90.100642	-13.968086	-151.190984
51601		0.257612	0.091468	-0.701866	-0.657765	90.115940	-13.962649	-151.215296
51602		0.257431	0.091392	-0.701966	-0.657739	90.130852	-13.956890	-151.238924
51603		0.257261	0.091314	-0.702059	-0.657717	90.144634	-13.951956	-151.261677
51604		0.257104	0.091251	-0.702154	-0.657685	90.159108	-13.946972	-151.282136
51605		0.256933	0.091157	-0.702248	-0.657665	90.172640	-13.943177	-151.306176
51606		0.256760	0.091091	-0.702343	-0.657641	90.186930	-13.937075	-151.328287
51607		0.256590	0.091014	-0.702429	-0.657626	90.199481	-13.931758	-151.350767
51608		0.256403	0.090932	-0.702519	-0.657614	90.212637	-13.925505	-151.375247
51609		0.256208	0.090837	-0.702594	-0.657623	90.223062	-13.918884	-151.401072
51610		0.256025	0.090746	-0.702665	-0.657631	90.232906	-13.912832	-151.425619
51611		0.255857	0.090658	-0.702714	-0.657656	90.239080	-13.906907	-151.448078
51612		0.255692	0.090603	-0.702765	-0.657673	90.246458	-13.898836	-151.467774
51613		0.255519	0.090554	-0.702806	-0.657703	90.252159	-13.889226	-151.487378
51614		0.255377	0.090501	-0.702851	-0.657718	90.258432	-13.882741	-151.504752
51615		0.255247	0.090494	-0.702880	-0.657738	90.263139	-13.873199	-151.517123
51616		0.255139	0.090486	-0.702918	-0.657740	90.269313	-13.865961	-151.527838
51617		0.255032	0.090494	-0.702947	-0.657750	90.274313	-13.857254	-151.537110
51618		0.254919	0.090496	-0.702990	-0.657747	90.281484	-13.849043	-151.547449
51619		0.254821	0.090515	-0.703029	-0.657741	90.288288	-13.840640	-151.555170
51620		0.254710	0.090550	-0.703063	-0.657743	90.294700	-13.829695	-151.562688
51621		0.254597	0.090581	-0.703085	-0.657759	90.298979	-13.818461	-151.570396
51622		0.254476	0.090648	-0.703116	-0.657763	90.305578	-13.804087	-151.576136
51623		0.254318	0.090723	-0.703140	-0.657788	90.311105	-13.785627	-151.584330
51624		0.254145	0.090824	-0.703163	-0.657817	90.317017	-13.763834	-151.591750
51625		0.253971	0.090952	-0.703173	-0.657856	90.321374	-13.739313	-151.596819
51626		0.253769	0.091104	-0.703184	-0.657901	90.326422	-13.710547	-151.602388
51627		0.253547	0.091304	-0.703191	-0.657951	90.331913	-13.676372	-151.605861
51628		0.253309	0.091514	-0.703202	-0.658002	90.338232	-13.640135	-151.609982
51629		0.253080	0.091778	-0.703205	-0.658050	90.344369	-13.600192	-151.608771
51630		0.252865	0.092045	-0.703222	-0.658078	90.352836	-13.561788	-151.606478
51631		0.252636	0.092325	-0.703231	-0.658116	90.360448	-13.521010	-151.604209
51632		0.252415	0.092589	-0.703242	-0.658153	90.367851	-13.482183	-151.602459
51633		0.252185	0.092851	-0.703267	-0.658177	90.377663	-13.443230	-151.601976
51634		0.251963	0.093110	-0.703299	-0.658191	90.388619	-13.405508	-151.601112
51635		0.251747	0.093334	-0.703312	-0.658229	90.395563	-13.370305	-151.602186
51636		0.251528	0.093540	-0.703312	-0.658283	90.400137	-13.335510	-151.604726
51637		0.251282	0.093695	-0.703320	-0.658346	90.404809	-13.302717	-151.613802
51638		0.251024	0.093864	-0.703331	-0.658409	90.410216	-13.267845	-151.622854
51639		0.250741	0.094015	-0.703329	-0.658497	90.413270	-13.231700	-151.635258
51640		0.250428	0.094143	-0.703338	-0.658589	90.417461	-13.195100	-151.652150
51641		0.250092	0.094268	-0.703367	-0.658667	90.425021	-13.157596	-151.671716
51642		0.249743	0.094379	-0.703396	-0.658752	90.432245	-13.120094	-151.693544
51643		0.249422	0.094478	-0.703428	-0.658826	90.439604	-13.085868	-151.713878
51644		0.249093	0.094540	-0.703455	-0.658913	90.445452	-13.053694	-151.737796
51645		0.248819	0.094598	-0.703470	-0.658992	90.449105	-13.026016	-151.757150
51646		0.248556	0.094688	-0.703475	-0.659073	90.451885	-12.996599	-151.772754
51647		0.248326	0.094761	-0.703475	-0.659149	90.453465	-12.971078	-151.786717
51648		0.248124	0.094857	-0.703471	-0.659216	90.454952	-12.946051	-151.796458
51649		0.247942	0.094948	-0.703467	-0.659275	90.456295	-12.923140	-151.804766
51650		0.247783	0.095058	-0.703468	-0.659318	90.458865	-12.901062	-151.809744
51651		0.247650	0.095152	-0.703494	-0.659327	90.465214	-12.883398	-151.814171
51652		0.247520	0.095251	-0.703520	-0.659333	90.471797	-12.865644	-151.817917
51653		0.247415	0.095338	-0.703546	-0.659333	90.477949	-12.851009	-151.820558
51654		0.247310	0.095426	-0.703573	-0.659331	90.484291	-12.836315	-151.822956
51655		0.247227	0.095482	-0.703585	-0.659341	90.487564	-12.825327	-151.825904
51656		0.247153	0.095538	-0.703593	-0.659352	90.490158	-12.815064	-151.827927
51657		0.247074	0.095585	-0.703587	-0.659381	90.490120	-12.804310	-151.830910
51658		0.247011	0.095612	-0.703580	-0.659409	90.489535	-12.796564	-151.834033
51659		0.246956	0.095616	-0.703571	-0.659438	90.488190	-12.791067	-151.838354
51660		0.246887	0.095619	-0.703562	-0.659473	90.486739	-12.784493	-151.843769
51661		0.246843	0.095608	-0.703567	-0.659486	90.487308	-12.781729	-151.848603
51662		0.246803	0.095573	-0.703566	-0.659507	90.486344	-12.780838	-151.854788
51663		0.246778	0.095571	-0.703575	-0.659507	90.487851	-12.779165	-151.857302
51664		0.246739	0.095553	-0.703592	-0.659506	90.490220	-12.777886	-151.862341
51665		0.246720	0.095544	-0.703601	-0.659505	90.491464	-12.777237	-151.864864
51666		0.246710	0.095534	-0.703613	-0.659497	90.493248	-12.777637	-151.866657
51667		0.246713	0.095525	-0.703622	-0.659487	90.494561	-12.779000	-151.867392
51668		0.246713	0.095528	-0.703632	-0.659476	90.496309	-12.779172	-151.867322
51669		0.246717	0.095518	-0.703675	-0.659431	90.503110	-12.782006	-151.868521
51670		0.246711	0.095452	-0.703729	-0.659385	90.510650	-12.788681	-151.875227
51671		0.246685	0.095418	-0.703780	-0.659345	90.518358	-12.791142	-151.881048
51672		0.246671	0.095398	-0.703841	-0.659288	90.527999	-12.793906	-151.884867
51673		0.246643	0.095391	-0.703896	-0.659241	90.536829	-12.794279	-151.888858
51674		0.246615	0.095385	-0.703948	-0.659197	90.545310	-12.794400	-151.892642
51675		0.246584	0.095389	-0.703998	-0.659154	90.553789	-12.793506	-151.895855
51676		0.246541	0.095409	-0.704044	-0.659118	90.561822	-12.790087	-151.898711
51677		0.246508	0.095425	-0.704091	-0.659078	90.569948	-12.787926	-151.901144
51678		0.246483	0.095424	-0.704139	-0.659036	90.577800	-12.787829	-151.904183
51679		0.246460	0.095423	-0.704174	-0.659008	90.583575	-12.787273	-151.906913
51680		0.246449	0.095410	-0.704227	-0.658957	90.592074	-12.789531	-151.909738
51681		0.246456	0.095388	-0.704273	-0.658908	90.599229	-12.793618	-151.911715
51682		0.246485	0.095353	-0.704310	-0.658863	90.604621	-12.800290	-151.912694
51683		0.246532	0.095312	-0.704340	-0.658819	90.608617	-12.808783	-151.912425
51684		0.246572	0.095231	-0.704391	-0.658761	90.615367	-12.820557	-151.916346
51685		0.246619	0.095143	-0.704423	-0.658723	90.618607	-12.832535	-151.919978
51686		0.246663	0.095054	-0.704470	-0.658668	90.624519	-12.845088	-151.924008
51687		0.246696	0.094947	-0.704511	-0.658627	90.629005	-12.857679	-151.930465
51688		0.246712	0.094853	-0.704552	-0.658591	90.633661	-12.867971	-151.937304
51689		0.246720	0.094758	-0.704597	-0.658554	90.638950	-12.877622	-151.945019
51690		0.246720	0.094670	-0.704629	-0.658533	90.642292	-12.885571	-151.952647
51691		0.246715	0.094590	-0.704667	-0.658505	90.646887	-12.892830	-151.960095
51692		0.246672	0.094532	-0.704737	-0.658454	90.657308	-12.896285	-151.969682
51693		0.246666	0.094480	-0.704805	-0.658392	90.667292	-12.902577	-151.975518
51694		0.246660	0.094427	-0.704858	-0.658344	90.675032	-12.908239	-151.981243
51695		0.246666	0.094403	-0.704919	-0.658280	90.684639	-12.912991	-151.983724
51696		0.246661	0.094369	-0.704980	-0.658222	90.693875	-12.917687	-151.987932
51697		0.246657	0.094333	-0.705039	-0.658166	90.702890	-12.922471	-151.992224
51698		0.246639	0.094296	-0.705079	-0.658135	90.708780	-12.925295	-151.997423
51699		0.246616	0.094252	-0.705119	-0.658106	90.714418	-12.928308	-152.003541
51700		0.246564	0.094243	-0.705160	-0.658084	90.720939	-12.926083	-152.009470
51701		0.246518	0.094228	-0.705195	-0.658066	90.726403	-12.924656	-152.015296
51702		0.246454	0.094222	-0.705226	-0.658057	90.731417	-12.920808	-152.021819
51703		0.246404	0.094217	-0.705265	-0.658035	90.737748	-12.918455	-152.027111
51704		0.246344	0.094215	-0.705302	-0.658017	90.743946	-12.914976	-152.033143
51705		0.246289	0.094232	-0.705349	-0.657986	90.752009	-12.910772	-152.037367
51706		0.246239	0.094271	-0.705402	-0.657942	90.761750	-12.905607	-152.039527
51707		0.246192	0.094298	-0.705466	-0.657887	90.772848	-12.902041	-152.042431
51708		0.246138	0.094346	-0.705527	-0.657835	90.783997	-12.896191	-152.044329
51709		0.246079	0.094387	-0.705591	-0.657782	90.795619	-12.890571	-152.047206
51710		0.246025	0.094424	-0.705657	-0.657726	90.807364	-12.885779	-152.050050
51711		0.245974	0.094476	-0.705706	-0.657686	90.816530	-12.879344	-152.051142
51712		0.245918	0.094494	-0.705764	-0.657641	90.826669	-12.875556	-152.055520
51713		0.245858	0.094520	-0.705796	-0.657626	90.832548	-12.869639	-152.059231
51714		0.245795	0.094516	-0.705828	-0.657616	90.837620	-12.865773	-152.065510
51715		0.245744	0.094540	-0.705847	-0.657611	90.841398	-12.860305	-152.068219
51716		0.245697	0.094524	-0.705858	-0.657620	90.842740	-12.857786	-152.073783
51717		0.245657	0.094518	-0.705884	-0.657607	90.846967	-12.855867	-152.078064
51718		0.245629	0.094499	-0.705895	-0.657608	90.848466	-12.855312	-152.082220
51719		0.245591	0.094510	-0.705914	-0.657601	90.851721	-12.851894	-152.084953
51720		0.245569	0.094529	-0.705938	-0.657580	90.856128	-12.849588	-152.085710
51721		0.245550	0.094564	-0.705967	-0.657551	90.861790	-12.846437	-152.085065
51722		0.245539	0.094610	-0.705996	-0.657518	90.867578	-12.843152	-152.082849
51723		0.245522	0.094634	-0.706029	-0.657485	90.873596	-12.841261	-152.082983
51724		0.245496	0.094690	-0.706071	-0.657442	90.881740	-12.836426	-152.081403
51725		0.245471	0.094734	-0.706093	-0.657421	90.886442	-12.831909	-152.080498
51726		0.245439	0.094767	-0.706111	-0.657409	90.890064	-12.827331	-152.080880
51727		0.245383	0.094829	-0.706137	-0.657392	90.895824	-12.818843	-152.081209
51728		0.245326	0.094876	-0.706158	-0.657384	90.900353	-12.811118	-152.082720
51729		0.245251	0.094929	-0.706173	-0.657389	90.903955	-12.801198	-152.085122
51730		0.245189	0.094986	-0.706191	-0.657384	90.908178	-12.792201	-152.086157
51731		0.245134	0.095080	-0.706209	-0.657372	90.913217	-12.781046	-152.083631
51732		0.245071	0.095136	-0.706235	-0.657360	90.918672	-12.772406	-152.085066
51733		0.245029	0.095216	-0.706251	-0.657346	90.923188	-12.763302	-152.082565
51734		0.245002	0.095305	-0.706274	-0.657319	90.928960	-12.755161	-152.078079
51735		0.244956	0.095382	-0.706288	-0.657310	90.932872	-12.745955	-152.076099
51736		0.244924	0.095462	-0.706304	-0.657293	90.937370	-12.737723	-152.072705
51737		0.244882	0.095544	-0.706313	-0.657287	90.940668	-12.728278	-152.069956
51738		0.244836	0.095623	-0.706313	-0.657293	90.942384	-12.718316	-152.067537
51739		0.244798	0.095695	-0.706303	-0.657307	90.942373	-12.709122	-152.064838
51740		0.244743	0.095746	-0.706306	-0.657317	90.943865	-12.700560	-152.065567
51741		0.244720	0.095794	-0.706283	-0.657343	90.941243	-12.694009	-152.063190
51742		0.244701	0.095832	-0.706270	-0.657359	90.939809	-12.688876	-152.061590
51743		0.244681	0.095870	-0.706251	-0.657381	90.937542	-12.683588	-152.059994
51744		0.244680	0.095905	-0.706220	-0.657409	90.933206	-12.679577	-152.056631
51745		0.244697	0.095946	-0.706178	-0.657443	90.927074	-12.676187	-152.051249
51746		0.244735	0.095986	-0.706148	-0.657454	90.923042	-12.675337	-152.044273
51747		0.244794	0.096022	-0.706122	-0.657455	90.919491	-12.676657	-152.035807
51748		0.244857	0.096095	-0.706091	-0.657454	90.916047	-12.675392	-152.024088
51749		0.244898	0.096182	-0.706073	-0.657446	90.915010	-12.671636	-152.013215
51750		0.244944	0.096232	-0.706049	-0.657447	90.912202	-12.670901	-152.004922
51751		0.244976	0.096321	-0.706036	-0.657436	90.912045	-12.666353	-151.994801
51752		0.244980	0.096391	-0.706040	-0.657419	90.914300	-12.661610	-151.988883
51753		0.244985	0.096461	-0.706039	-0.657409	90.915660	-12.656783	-151.982857
51754		0.244976	0.096556	-0.706029	-0.657409	90.916146	-12.648334	-151.975853
51755		0.244970	0.096641	-0.706015	-0.657414	90.915593	-12.640773	-151.969316
51756		0.244966	0.096746	-0.705993	-0.657424	90.914329	-12.631648	-151.960797
51757		0.244958	0.096844	-0.705967	-0.657440	90.912207	-12.622480	-151.953239
51758		0.244962	0.096959	-0.705954	-0.657435	90.912711	-12.613659	-151.943462
51759		0.244962	0.097052	-0.705946	-0.657431	90.913373	-12.606293	-151.935875
51760		0.244957	0.097153	-0.705946	-0.657417	90.915754	-12.598233	-151.928161
51761		0.244964	0.097269	-0.705951	-0.657393	90.919104	-12.590239	-151.918461
51762		0.244969	0.097369	-0.705964	-0.657361	90.923620	-12.583717	-151.910239
51763		0.244973	0.097466	-0.705992	-0.657316	90.930377	-12.577904	-151.902563
51764		0.244975	0.097547	-0.705999	-0.657296	90.933406	-12.572233	-151.896052
51765		0.244977	0.097611	-0.706002	-0.657282	90.935391	-12.567634	-151.890785
51766		0.244978	0.097633	-0.706001	-0.657279	90.935758	-12.565995	-151.888903
51767		0.244969	0.097654	-0.706004	-0.657277	90.936638	-12.563769	-151.888058
51768		0.244973	0.097663	-0.705998	-0.657280	90.935939	-12.563254	-151.886881
51769		0.244989	0.097641	-0.705991	-0.657285	90.934286	-12.565968	-151.887156
51770		0.245009	0.097611	-0.705985	-0.657288	90.932527	-12.569822	-151.887735
51771		0.245038	0.097576	-0.705969	-0.657300	90.929126	-12.574253	-151.887797
51772		0.245074	0.097538	-0.705968	-0.657293	90.928162	-12.580271	-151.887724
51773		0.245118	0.097494	-0.705947	-0.657306	90.923617	-12.586520	-151.887049
51774		0.245195	0.097435	-0.705937	-0.657296	90.920706	-12.597326	-151.885100
51775		0.245284	0.097407	-0.705901	-0.657306	90.914108	-12.605762	-151.879066
51776		0.245395	0.097378	-0.705863	-0.657310	90.907167	-12.615984	-151.871290
51777		0.245509	0.097337	-0.705824	-0.657315	90.899762	-12.627362	-151.864003
51778		0.245636	0.097283	-0.705799	-0.657303	90.894405	-12.641510	-151.857051
51779		0.245740	0.097243	-0.705779	-0.657291	90.890317	-12.652776	-151.850993
51780		0.245820	0.097158	-0.705781	-0.657272	90.888713	-12.666257	-151.850907
51781		0.245919	0.097082	-0.705775	-0.657253	90.885950	-12.680436	-151.848458
51782		0.245995	0.097052	-0.705757	-0.657248	90.882323	-12.688521	-151.844093
51783		0.246063	0.096981	-0.705732	-0.657259	90.876715	-12.698877	-151.843461
51784		0.246140	0.096920	-0.705685	-0.657290	90.867577	-12.708170	-151.840915
51785		0.246224	0.096885	-0.705635	-0.657317	90.858539	-12.716055	-151.835675
51786		0.246316	0.096835	-0.705579	-0.657351	90.848071	-12.725582	-151.830788
51787		0.246421	0.096783	-0.705530	-0.657371	90.838839	-12.736646	-151.825056
51788		0.246546	0.096759	-0.705479	-0.657383	90.829767	-12.747244	-151.815318
51789		0.246649	0.096749	-0.705440	-0.657388	90.823130	-12.755381	-151.806682
51790		0.246781	0.096721	-0.705399	-0.657386	90.815805	-12.767333	-151.796865
51791		0.246928	0.096724	-0.705361	-0.657371	90.809539	-12.778320	-151.783340
51792		0.247070	0.096720	-0.705328	-0.657354	90.804050	-12.789660	-151.770873
51793		0.247217	0.096723	-0.705290	-0.657339	90.797779	-12.800642	-151.757343
51794		0.247365	0.096714	-0.705256	-0.657321	90.792100	-12.812839	-151.744725
51795		0.247514	0.096690	-0.705222	-0.657305	90.785920	-12.826253	-151.733269
51796		0.247644	0.096640	-0.705178	-0.657311	90.777499	-12.839483	-151.725339
51797		0.247769	0.096555	-0.705138	-0.657319	90.769021	-12.855217	-151.720633
51798		0.247863	0.096461	-0.705083	-0.657357	90.757715	-12.868222	-151.719195
51799		0.248005	0.096355	-0.705008	-0.657399	90.742950	-12.885563	-151.714069
51800		0.248133	0.096242	-0.704936	-0.657444	90.728555	-12.902188	-151.710870
51801		0.248266	0.096124	-0.704859	-0.657494	90.713196	-12.919566	-151.707548
51802		0.248389	0.096025	-0.704785	-0.657541	90.698661	-12.934696	-151.703447
51803		0.248545	0.095922	-0.704708	-0.657580	90.683606	-12.952905	-151.697016
51804		0.248686	0.095831	-0.704633	-0.657620	90.669325	-12.969047	-151.690822
51805		0.248839	0.095753	-0.704560	-0.657652	90.655388	-12.985152	-151.682548
51806		0.248993	0.095708	-0.704485	-0.657680	90.642119	-12.998938	-151.671583
51807		0.249134	0.095661	-0.704405	-0.657719	90.627743	-13.011471	-151.661740
51808		0.249255	0.095632	-0.704328	-0.657760	90.614377	-13.021005	-151.652291
51809		0.249378	0.095607	-0.704242	-0.657809	90.599579	-13.030109	-151.642174
51810		0.249484	0.095592	-0.704149	-0.657871	90.583774	-13.036642	-151.632547
51811		0.249576	0.095570	-0.704060	-0.657935	90.568586	-13.042610	-151.624742
51812		0.249660	0.095555	-0.703947	-0.658025	90.549595	-13.046437	-151.616762
51813		0.249716	0.095530	-0.703842	-0.658121	90.531595	-13.048728	-151.612075
51814		0.249749	0.095523	-0.703748	-0.658210	90.515862	-13.048329	-151.608060
51815		0.249795	0.095516	-0.703647	-0.658301	90.499001	-13.048665	-151.602835
51816		0.249805	0.095538	-0.703544	-0.658404	90.482493	-13.043620	-151.598476
51817		0.249790	0.095585	-0.703443	-0.658511	90.466845	-13.034526	-151.594245
51818		0.249752	0.095633	-0.703347	-0.658621	90.451979	-13.023646	-151.591980
51819		0.249685	0.095686	-0.703269	-0.658722	90.440163	-13.010557	-151.592081
51820		0.249610	0.095774	-0.703191	-0.658820	90.429309	-12.994129	-151.590165
51821		0.249523	0.095860	-0.703111	-0.658927	90.417954	-12.976687	-151.589481
51822		0.249425	0.095917	-0.703042	-0.659029	90.407757	-12.961069	-151.592150
51823		0.249312	0.095984	-0.702959	-0.659151	90.395496	-12.942694	-151.595096
51824		0.249205	0.096061	-0.702868	-0.659277	90.382248	-12.923794	-151.596685
51825		0.249089	0.096125	-0.702774	-0.659411	90.368167	-12.904968	-151.599919
51826		0.248982	0.096188	-0.702673	-0.659551	90.352756	-12.886746	-151.602317
51827		0.248886	0.096233	-0.702562	-0.659699	90.335431	-12.870298	-151.605093
51828		0.248803	0.096283	-0.702442	-0.659850	90.316848	-12.854417	-151.606246
51829		0.248727	0.096312	-0.702332	-0.659991	90.299320	-12.841142	-151.608520
51830		0.248647	0.096320	-0.702225	-0.660134	90.281807	-12.829120	-151.612894
51831		0.248603	0.096346	-0.702110	-0.660269	90.263448	-12.818619	-151.612608
51832		0.248567	0.096355	-0.701985	-0.660414	90.242933	-12.809640	-151.612826
51833		0.248539	0.096342	-0.701858	-0.660562	90.221691	-12.802943	-151.614139
51834		0.248522	0.096329	-0.701723	-0.660713	90.199152	-12.796863	-151.614347
51835		0.248502	0.096283	-0.701585	-0.660874	90.175295	-12.792945	-151.617252
51836		0.248476	0.096217	-0.701446	-0.661041	90.150973	-12.790018	-151.622377
51837		0.248463	0.096150	-0.701300	-0.661210	90.125373	-12.787951	-151.626340
51838		0.248447	0.096066	-0.701179	-0.661357	90.103515	-12.788002	-151.632297
51839		0.248397	0.095965	-0.701051	-0.661527	90.080072	-12.786114	-151.642418
51840		0.248351	0.095855	-0.700935	-0.661683	90.058488	-12.785721	-151.653111
51841		0.248301	0.095753	-0.700814	-0.661844	90.036264	-12.784184	-151.663470
51842		0.248244	0.095658	-0.700692	-0.662009	90.013992	-12.781398	-151.673898
51843		0.248187	0.095547	-0.700572	-0.662173	89.991782	-12.780015	-151.685546
51844		0.248141	0.095468	-0.700451	-0.662330	89.970095	-12.777076	-151.693684
51845		0.248108	0.095405	-0.700315	-0.662495	89.946269	-12.773453	-151.699169
51846		0.248056	0.095347	-0.700213	-0.662631	89.928172	-12.769180	-151.706471
51847		0.248048	0.095300	-0.700102	-0.662758	89.908910	-12.767524	-151.709044
51848		0.248021	0.095275	-0.700002	-0.662876	89.891974	-12.763051	-151.711670
51849		0.248020	0.095268	-0.699889	-0.662997	89.873213	-12.758878	-151.710372
51850		0.248004	0.095255	-0.699787	-0.663113	89.856096	-12.754339	-151.710992
51851		0.248001	0.095259	-0.699670	-0.663237	89.836990	-12.748883	-151.708932
51852		0.248022	0.095283	-0.699565	-0.663336	89.820252	-12.744601	-151.703445
51853		0.248045	0.095292	-0.699470	-0.663426	89.804837	-12.742037	-151.698998
51854		0.248083	0.095290	-0.699374	-0.663514	89.789049	-12.741503	-151.694323
51855		0.248103	0.095294	-0.699284	-0.663601	89.774250	-12.739187	-151.690641
51856		0.248143	0.095312	-0.699190	-0.663682	89.759336	-12.737541	-151.684140
51857		0.248195	0.095327	-0.699109	-0.663745	89.746394	-12.737511	-151.677066
51858		0.248233	0.095326	-0.699048	-0.663796	89.736224	-12.738356	-151.672774
51859		0.248283	0.095307	-0.698991	-0.663841	89.726420	-12.741746	-151.668990
51860		0.248346	0.095278	-0.698933	-0.663882	89.716254	-12.747098	-151.664797
51861		0.248392	0.095252	-0.698895	-0.663908	89.709498	-12.751447	-151.662250
51862		0.248441	0.095217	-0.698866	-0.663926	89.703897	-12.757208	-151.660293
51863		0.248456	0.095163	-0.698867	-0.663926	89.702935	-12.762665	-151.663326
51864		0.248469	0.095121	-0.698885	-0.663909	89.704865	-12.767662	-151.665774
51865		0.248473	0.095067	-0.698907	-0.663892	89.707224	-12.773052	-151.670047
51866		0.248475	0.095029	-0.698930	-0.663873	89.710129	-12.777141	-151.673291
51867		0.248477	0.095002	-0.698947	-0.663857	89.712400	-12.780067	-151.675513
51868		0.248481	0.094965	-0.698973	-0.663833	89.715913	-12.784310	-151.678533
51869		0.248493	0.094952	-0.698993	-0.663811	89.718774	-12.787177	-151.678941
51870		0.248479	0.094935	-0.699025	-0.663784	89.723729	-12.788530	-151.682017
51871		0.248500	0.094948	-0.699061	-0.663737	89.729868	-12.790859	-151.679797
51872		0.248507	0.094972	-0.699107	-0.663682	89.737998	-12.791473	-151.678149
51873		0.248525	0.095009	-0.699161	-0.663613	89.747701	-12.792395	-151.674589
51874		0.248544	0.095048	-0.699212	-0.663547	89.756958	-12.793182	-151.670762
51875		0.248562	0.095099	-0.699273	-0.663468	89.768136	-12.793271	-151.666151
51876		0.248593	0.095186	-0.699336	-0.663378	89.780408	-12.791947	-151.657661
51877		0.248624	0.095254	-0.699402	-0.663287	89.792777	-12.792075	-151.650706
51878		0.248678	0.095324	-0.699457	-0.663198	89.803437	-12.793727	-151.641406
51879		0.248697	0.095408	-0.699510	-0.663124	89.813913	-12.791096	-151.633975
51880		0.248727	0.095489	-0.699568	-0.663039	89.825331	-12.789949	-151.626039
51881		0.248745	0.095571	-0.699635	-0.662950	89.838243	-12.788021	-151.619080
51882		0.248747	0.095666	-0.699706	-0.662860	89.852044	-12.783899	-151.612630
51883		0.248763	0.095759	-0.699777	-0.662766	89.865830	-12.781040	-151.605142
51884		0.248780	0.095825	-0.699850	-0.662674	89.879219	-12.780499	-151.599624
51885		0.248818	0.095903	-0.699907	-0.662588	89.890360	-12.780113	-151.591134
51886		0.248840	0.096005	-0.699988	-0.662479	89.906083	-12.777615	-151.582563
51887		0.248858	0.096073	-0.700049	-0.662398	89.917524	-12.776513	-151.576650
51888		0.248886	0.096154	-0.700101	-0.662321	89.927939	-12.774861	-151.568698
51889		0.248926	0.096222	-0.700154	-0.662240	89.938208	-12.775401	-151.560732
51890		0.248972	0.096286	-0.700200	-0.662164	89.947320	-12.776364	-151.552435
51891		0.249006	0.096345	-0.700255	-0.662085	89.957603	-12.777060	-151.545758
51892		0.249052	0.096374	-0.700317	-0.661998	89.968420	-12.781424	-151.540521
51893		0.249070	0.096439	-0.700399	-0.661895	89.983515	-12.781374	-151.535313
51894		0.249067	0.096525	-0.700478	-0.661800	89.998436	-12.777876	-151.530107
51895		0.249050	0.096620	-0.700561	-0.661704	90.014289	-12.772590	-151.525415
51896		0.249029	0.096724	-0.700642	-0.661611	90.029930	-12.766188	-151.520330
51897		0.249001	0.096851	-0.700711	-0.661531	90.044152	-12.756958	-151.513865
51898		0.248957	0.096987	-0.700783	-0.661451	90.059095	-12.745730	-151.508115
51899		0.248901	0.097123	-0.700844	-0.661387	90.072330	-12.733120	-151.503217
51900		0.248834	0.097229	-0.700921	-0.661315	90.087370	-12.722423	-151.501958
51901		0.248791	0.097353	-0.700966	-0.661265	90.097627	-12.711161	-151.496586
51902		0.248736	0.097447	-0.701023	-0.661212	90.109182	-12.701555	-151.494783
51903		0.248677	0.097549	-0.701075	-0.661164	90.120082	-12.690855	-151.492749
51904		0.248636	0.097631	-0.701119	-0.661121	90.129122	-12.682905	-151.490466
51905		0.248596	0.097728	-0.701161	-0.661077	90.138250	-12.673751	-151.486908
51906		0.248566	0.097824	-0.701202	-0.661031	90.147191	-12.665619	-151.482645
51907		0.248519	0.097896	-0.701245	-0.660991	90.156072	-12.657802	-151.481667
51908		0.248489	0.097964	-0.701288	-0.660947	90.164612	-12.651876	-151.479535
51909		0.248426	0.098029	-0.701346	-0.660900	90.175610	-12.643789	-151.480838
51910		0.248372	0.098080	-0.701389	-0.660867	90.183885	-12.637072	-151.482196
51911		0.248298	0.098103	-0.701431	-0.660847	90.191340	-12.630706	-151.487434
51912		0.248204	0.098113	-0.701482	-0.660827	90.199961	-12.623818	-151.495684
51913		0.248108	0.098121	-0.701524	-0.660817	90.207108	-12.616633	-151.504024
51914		0.247995	0.098137	-0.701573	-0.660804	90.215614	-12.607685	-151.513384
51915		0.247883	0.098139	-0.701622	-0.660794	90.223658	-12.599874	-151.523770
51916		0.247737	0.098157	-0.701676	-0.660789	90.232973	-12.588086	-151.535787
51917		0.247609	0.098168	-0.701731	-0.660778	90.242172	-12.578463	-151.546920
51918		0.247470	0.098207	-0.701801	-0.660749	90.254744	-12.566319	-151.556983
51919		0.247327	0.098241	-0.701868	-0.660726	90.266573	-12.554045	-151.567799
51920		0.247182	0.098275	-0.701930	-0.660710	90.277422	-12.541401	-151.578632
51921		0.247042	0.098315	-0.701985	-0.660698	90.287415	-12.528517	-151.588446
51922		0.246872	0.098363	-0.702042	-0.660694	90.297901	-12.512532	-151.600330
51923		0.246700	0.098407	-0.702094	-0.660696	90.307508	-12.496509	-151.612467
51924		0.246547	0.098462	-0.702126	-0.660711	90.313980	-12.480329	-151.621767
51925		0.246364	0.098520	-0.702179	-0.660714	90.324123	-12.462235	-151.633883
51926		0.246164	0.098542	-0.702208	-0.660755	90.329380	-12.444411	-151.649903
51927		0.245978	0.098599	-0.702236	-0.660786	90.335263	-12.425164	-151.661842
51928		0.245790	0.098667	-0.702257	-0.660823	90.340320	-12.404510	-151.672967
51929		0.245608	0.098730	-0.702273	-0.660864	90.344365	-12.384654	-151.683905
51930		0.245421	0.098800	-0.702298	-0.660897	90.350044	-12.364133	-151.694870
51931		0.245242	0.098866	-0.702317	-0.660933	90.354684	-12.344365	-151.705271
51932		0.245059	0.098963	-0.702330	-0.660972	90.359106	-12.321724	-151.713529
51933		0.244890	0.099058	-0.702350	-0.660999	90.364595	-12.300705	-151.720805
51934		0.244726	0.099162	-0.702349	-0.661047	90.366675	-12.278540	-151.726709
51935		0.244573	0.099265	-0.702355	-0.661081	90.370051	-12.257792	-151.731706
51936		0.244419	0.099367	-0.702355	-0.661122	90.372441	-12.236722	-151.736829
51937		0.244274	0.099480	-0.702352	-0.661162	90.374589	-12.215466	-151.740301
51938		0.244129	0.099609	-0.702350	-0.661199	90.377207	-12.192980	-151.742395
51939		0.243989	0.099714	-0.702354	-0.661230	90.380299	-12.173097	-151.746099
51940		0.243859	0.099862	-0.702356	-0.661254	90.384044	-12.150703	-151.745606
51941		0.243717	0.100010	-0.702355	-0.661285	90.387319	-12.127155	-151.745941
51942		0.243597	0.100128	-0.702353	-0.661313	90.389766	-12.107763	-151.746837
51943		0.243477	0.100274	-0.702360	-0.661328	90.394313	-12.086564	-151.745591
51944		0.243374	0.100398	-0.702359	-0.661348	90.397068	-12.068152	-151.744576
51945		0.243275	0.100528	-0.702367	-0.661356	90.401408	-12.050144	-151.742819
51946		0.243177	0.100645	-0.702366	-0.661376	90.403885	-12.032791	-151.741905
51947		0.243104	0.100747	-0.702371	-0.661381	90.407144	-12.018913	-151.740179
51948		0.243032	0.100853	-0.702381	-0.661381	90.411290	-12.005025	-151.738089
51949		0.242938	0.100928	-0.702390	-0.661394	90.414569	-11.991605	-151.740228
51950		0.242843	0.101016	-0.702416	-0.661389	90.420760	-11.977721	-151.741853
51951		0.242778	0.101098	-0.702431	-0.661384	90.425304	-11.966503	-151.741123
51952		0.242705	0.101171	-0.702461	-0.661367	90.431917	-11.955940	-151.742014
51953		0.242643	0.101241	-0.702488	-0.661351	90.438015	-11.946351	-151.742273
51954		0.242571	0.101312	-0.702529	-0.661323	90.446337	-11.936391	-151.743414
51955		0.242491	0.101374	-0.702570	-0.661299	90.454537	-11.926517	-151.745933
51956		0.242408	0.101463	-0.702597	-0.661288	90.461064	-11.913606	-151.746420
51957		0.242300	0.101520	-0.702623	-0.661290	90.466782	-11.901175	-151.751575
51958		0.242214	0.101606	-0.702655	-0.661275	90.473947	-11.888411	-151.752597
51959		0.242111	0.101683	-0.702676	-0.661278	90.479320	-11.874535	-151.755690
51960		0.242008	0.101762	-0.702699	-0.661280	90.484890	-11.860593	-151.758615
51961		0.241913	0.101835	-0.702723	-0.661277	90.490594	-11.847845	-151.761182
51962		0.241830	0.101912	-0.702743	-0.661275	90.495739	-11.835705	-151.762574
51963		0.241755	0.102011	-0.702771	-0.661257	90.502643	-11.822837	-151.761493
51964		0.241681	0.102111	-0.702788	-0.661251	90.507825	-11.809530	-151.760193
51965		0.241631	0.102198	-0.702812	-0.661230	90.513912	-11.799613	-151.757851
51966		0.241592	0.102318	-0.702827	-0.661209	90.519211	-11.787839	-151.751887
51967		0.241550	0.102432	-0.702835	-0.661199	90.523134	-11.775880	-151.746505
51968		0.241524	0.102536	-0.702841	-0.661186	90.526600	-11.765988	-151.740503
51969		0.241481	0.102633	-0.702856	-0.661170	90.531472	-11.755563	-151.736642
51970		0.241447	0.102712	-0.702872	-0.661154	90.535946	-11.747283	-151.733495
51971		0.241388	0.102818	-0.702901	-0.661128	90.543185	-11.735382	-151.730587
51972		0.241353	0.102897	-0.702921	-0.661108	90.548379	-11.727184	-151.727612
51973		0.241290	0.102983	-0.702947	-0.661089	90.554747	-11.716374	-151.726535
51974		0.241263	0.103087	-0.702969	-0.661060	90.560822	-11.707018	-151.720923
51975		0.241223	0.103189	-0.702980	-0.661047	90.565090	-11.696334	-151.716297
51976		0.241195	0.103306	-0.703005	-0.661012	90.571987	-11.686028	-151.709740
51977		0.241167	0.103423	-0.703043	-0.660963	90.581105	-11.676423	-151.703420
51978		0.241131	0.103545	-0.703106	-0.660890	90.594393	-11.666661	-151.697649
51979		0.241090	0.103688	-0.703175	-0.660810	90.609179	-11.655176	-151.690884
51980		0.241015	0.103817	-0.703273	-0.660712	90.628402	-11.642978	-151.688519
51981		0.240938	0.103971	-0.703373	-0.660610	90.648528	-11.628786	-151.684404
51982		0.240848	0.104125	-0.703446	-0.660541	90.664228	-11.612389	-151.680883
51983		0.240737	0.104280	-0.703532	-0.660466	90.682145	-11.594593	-151.679387
51984		0.240618	0.104429	-0.703620	-0.660391	90.700321	-11.576756	-151.678960
51985		0.240500	0.104560	-0.703701	-0.660327	90.716757	-11.559949	-151.679820
51986		0.240377	0.104686	-0.703791	-0.660255	90.734692	-11.543472	-151.681644
51987		0.240277	0.104780	-0.703878	-0.660184	90.751255	-11.531308	-151.684056
51988		0.240176	0.104907	-0.703973	-0.660100	90.769944	-11.516889	-151.683931
51989		0.240085	0.105012	-0.704077	-0.660006	90.789537	-11.505352	-151.684947
51990		0.240028	0.105133	-0.704183	-0.659894	90.809960	-11.495637	-151.681806
51991		0.239955	0.105217	-0.704284	-0.659799	90.828737	-11.487207	-151.682856
51992		0.239911	0.105282	-0.704376	-0.659706	90.845509	-11.482308	-151.682844
51993		0.239862	0.105352	-0.704457	-0.659627	90.860438	-11.476047	-151.682740
51994		0.239821	0.105407	-0.704538	-0.659547	90.875123	-11.471734	-151.683049
51995		0.239771	0.105447	-0.704604	-0.659487	90.887085	-11.467161	-151.685112
51996		0.239729	0.105498	-0.704663	-0.659432	90.898022	-11.462019	-151.685593
51997		0.239675	0.105517	-0.704735	-0.659371	90.910320	-11.458883	-151.689713
51998		0.239633	0.105540	-0.704792	-0.659323	90.920191	-11.455823	-151.692373
51999		0.239600	0.105573	-0.704838	-0.659280	90.928576	-11.452382	-151.693270
52000		0.239567	0.105605	-0.704899	-0.659222	90.939419	-11.449624	-151.694446
52001		0.239523	0.105607	-0.704966	-0.659165	90.950568	-11.448462	-151.699129
52002		0.239490	0.105626	-0.705021	-0.659116	90.960082	-11.446430	-151.701251
52003		0.239450	0.105648	-0.705083	-0.659060	90.970894	-11.443824	-151.703872
52004		0.239415	0.105635	-0.705144	-0.659010	90.980554	-11.444311	-151.708785
52005		0.239373	0.105623	-0.705230	-0.658935	90.994466	-11.445117	-151.714673
52006		0.239303	0.105604	-0.705336	-0.658849	91.011569	-11.444823	-151.723937
52007		0.239215	0.105559	-0.705453	-0.658764	91.029670	-11.445332	-151.736894
52008		0.239092	0.105530	-0.705582	-0.658674	91.050276	-11.442159	-151.751598
52009		0.238947	0.105500	-0.705706	-0.658599	91.070009	-11.436867	-151.768319
52010		0.238803	0.105473	-0.705831	-0.658522	91.089832	-11.431582	-151.784746
52011		0.238649	0.105461	-0.705959	-0.658443	91.110711	-11.424287	-151.800887
52012		0.238489	0.105473	-0.706095	-0.658352	91.133468	-11.415050	-151.815612
52013		0.238325	0.105464	-0.706221	-0.658278	91.154007	-11.406597	-151.832259
52014		0.238183	0.105458	-0.706352	-0.658190	91.175373	-11.400156	-151.846893
52015		0.238025	0.105440	-0.706492	-0.658100	91.198066	-11.393404	-151.863984
52016		0.237878	0.105442	-0.706638	-0.657996	91.222257	-11.386436	-151.878612
52017		0.237753	0.105424	-0.706792	-0.657879	91.247169	-11.383262	-151.893071
52018		0.237649	0.105421	-0.706938	-0.657759	91.271313	-11.380507	-151.904408
52019		0.237554	0.105411	-0.707083	-0.657639	91.295074	-11.378852	-151.915566
52020		0.237479	0.105400	-0.707238	-0.657502	91.320298	-11.379512	-151.925198
52021		0.237397	0.105423	-0.707387	-0.657368	91.345540	-11.376694	-151.932679
52022		0.237320	0.105411	-0.707530	-0.657243	91.368997	-11.376760	-151.942410
52023		0.237204	0.105390	-0.707686	-0.657120	91.394248	-11.374662	-151.956335
52024		0.237087	0.105385	-0.707836	-0.657003	91.418790	-11.370970	-151.969110
52025		0.236950	0.105398	-0.707974	-0.656900	91.442080	-11.363767	-151.981753
52026		0.236796	0.105404	-0.708128	-0.656789	91.467652	-11.356183	-151.996719
52027		0.236624	0.105446	-0.708289	-0.656671	91.495320	-11.344664	-152.010427
52028		0.236460	0.105483	-0.708432	-0.656570	91.519763	-11.333343	-152.023627
52029		0.236313	0.105513	-0.708590	-0.656448	91.546619	-11.324779	-152.036097
52030		0.236148	0.105582	-0.708742	-0.656332	91.573507	-11.311476	-152.046872
52031		0.236005	0.105647	-0.708909	-0.656192	91.602715	-11.300945	-152.056378
52032		0.235844	0.105739	-0.709068	-0.656064	91.631196	-11.286520	-152.065070
52033		0.235678	0.105835	-0.709240	-0.655922	91.662080	-11.271889	-152.073923
52034		0.235513	0.105949	-0.709408	-0.655781	91.692696	-11.255910	-152.081354
52035		0.235345	0.106074	-0.709569	-0.655647	91.722287	-11.238449	-152.087875
52036		0.235160	0.106178	-0.709733	-0.655519	91.752026	-11.221266	-152.097709
52037		0.234976	0.106282	-0.709893	-0.655395	91.781006	-11.203970	-152.107321
52038		0.234791	0.106372	-0.710040	-0.655288	91.807537	-11.187030	-152.117873
52039		0.234594	0.106460	-0.710195	-0.655176	91.835296	-11.169661	-152.129825
52040		0.234400	0.106553	-0.710349	-0.655063	91.863183	-11.152111	-152.141030
52041		0.234193	0.106642	-0.710509	-0.654949	91.891809	-11.133906	-152.153682
52042		0.234036	0.106709	-0.710649	-0.654842	91.916655	-11.120895	-152.163722
52043		0.233848	0.106763	-0.710800	-0.654737	91.942990	-11.106652	-152.177538
52044		0.233641	0.106822	-0.710999	-0.654585	91.977424	-11.092253	-152.193243
52045		0.233474	0.106825	-0.711168	-0.654461	92.005456	-11.084244	-152.209649
52046		0.233300	0.106824	-0.711324	-0.654353	92.031399	-11.075546	-152.226813
52047		0.233139	0.106790	-0.711479	-0.654248	92.056197	-11.070264	-152.245447
52048		0.232996	0.106722	-0.711618	-0.654158	92.077719	-11.068534	-152.265162
52049		0.232840	0.106633	-0.711742	-0.654094	92.095981	-11.066414	-152.287463
52050		0.232695	0.106517	-0.711851	-0.654045	92.111344	-11.066814	-152.310779
52051		0.232550	0.106354	-0.711954	-0.654011	92.124366	-11.070517	-152.337777
52052		0.232369	0.106203	-0.712062	-0.653983	92.138595	-11.070223	-152.366943
52053		0.232208	0.106017	-0.712171	-0.653951	92.152230	-11.074413	-152.397270
52054		0.232012	0.105834	-0.712294	-0.653916	92.168140	-11.075924	-152.430556
52055		0.231813	0.105643	-0.712402	-0.653900	92.181358	-11.077034	-152.464444
52056		0.231662	0.105439	-0.712504	-0.653876	92.193355	-11.083005	-152.495339
52057		0.231550	0.105229	-0.712574	-0.653873	92.199947	-11.091746	-152.522954
52058		0.231452	0.105027	-0.712637	-0.653872	92.205471	-11.100698	-152.548567
52059		0.231334	0.104886	-0.712712	-0.653854	92.214603	-11.103973	-152.571081
52060		0.231216	0.104805	-0.712808	-0.653804	92.228615	-11.103471	-152.589125
52061		0.231108	0.104737	-0.712905	-0.653748	92.243054	-11.102935	-152.605166
52062		0.231025	0.104643	-0.713001	-0.653687	92.256795	-11.106621	-152.621229
52063		0.230976	0.104563	-0.713060	-0.653652	92.264789	-11.110648	-152.632738
52064		0.230942	0.104477	-0.713116	-0.653618	92.271937	-11.116289	-152.643493
52065		0.230913	0.104410	-0.713157	-0.653594	92.277234	-11.120439	-152.652028
52066		0.230896	0.104346	-0.713187	-0.653578	92.280670	-11.124808	-152.659094
52067		0.230872	0.104303	-0.713193	-0.653585	92.280753	-11.126251	-152.664703
52068		0.230828	0.104265	-0.713211	-0.653588	92.282791	-11.125965	-152.671782
52069		0.230808	0.104256	-0.713227	-0.653579	92.285221	-11.125460	-152.674424
52070		0.230792	0.104241	-0.713230	-0.653584	92.285351	-11.125265	-152.677065
52071		0.230792	0.104230	-0.713221	-0.653595	92.283604	-11.125747	-152.677842
52072		0.230845	0.104215	-0.713199	-0.653604	92.279479	-11.130602	-152.674271
52073		0.230922	0.104169	-0.713166	-0.653620	92.272931	-11.139448	-152.671036
52074		0.230987	0.104139	-0.713130	-0.653640	92.266387	-11.145985	-152.667452
52075		0.231052	0.104122	-0.713098	-0.653655	92.260622	-11.151555	-152.662831
52076		0.231109	0.104098	-0.713064	-0.653676	92.254409	-11.157003	-152.659482
52077		0.231148	0.104078	-0.713035	-0.653696	92.249174	-11.160751	-152.657377
52078		0.231178	0.104030	-0.713017	-0.653713	92.245029	-11.166270	-152.658482
52079		0.231168	0.103990	-0.713007	-0.653734	92.242417	-11.167978	-152.662407
52080		0.231133	0.103949	-0.713016	-0.653743	92.242936	-11.168366	-152.668846
52081		0.231075	0.103935	-0.713031	-0.653750	92.244946	-11.164811	-152.675053
52082		0.230997	0.103910	-0.713053	-0.653757	92.248023	-11.160708	-152.684030
52083		0.230939	0.103898	-0.713060	-0.653773	92.248815	-11.156828	-152.690022
52084		0.230898	0.103896	-0.713069	-0.653777	92.250289	-11.153715	-152.693737
52085		0.230876	0.103870	-0.713100	-0.653755	92.254895	-11.155041	-152.698126
52086		0.230840	0.103869	-0.713134	-0.653731	92.260442	-11.153253	-152.701779
52087		0.230841	0.103905	-0.713170	-0.653685	92.267384	-11.152220	-152.699332
52088		0.230830	0.103939	-0.713214	-0.653636	92.275439	-11.150370	-152.698161
52089		0.230812	0.104010	-0.713266	-0.653574	92.285864	-11.145660	-152.694723
52090		0.230780	0.104108	-0.713309	-0.653523	92.295337	-11.137313	-152.690068
52091		0.230726	0.104223	-0.713343	-0.653487	92.303688	-11.125350	-152.685799
52092		0.230691	0.104397	-0.713343	-0.653471	92.307893	-11.109338	-152.674577
52093		0.230643	0.104617	-0.713332	-0.653466	92.311121	-11.088423	-152.660562
52094		0.230596	0.104853	-0.713335	-0.653441	92.317238	-11.066838	-152.645381
52095		0.230558	0.105115	-0.713330	-0.653417	92.322826	-11.043825	-152.627100
52096		0.230506	0.105393	-0.713336	-0.653384	92.330429	-11.018882	-152.609030
52097		0.230464	0.105696	-0.713357	-0.653328	92.341081	-10.993506	-152.588156
52098		0.230394	0.106009	-0.713403	-0.653251	92.356390	-10.966042	-152.569230
52099		0.230315	0.106339	-0.713468	-0.653154	92.375071	-10.937267	-152.549976
52100		0.230237	0.106653	-0.713533	-0.653059	92.393596	-10.909718	-152.531883
52101		0.230148	0.106954	-0.713596	-0.652972	92.411423	-10.882159	-152.515758
52102		0.230055	0.107251	-0.713662	-0.652885	92.429529	-10.854624	-152.500430
52103		0.229930	0.107535	-0.713734	-0.652803	92.448505	-10.825598	-152.488834
52104		0.229816	0.107789	-0.713798	-0.652732	92.465193	-10.799293	-152.478687
52105		0.229678	0.108040	-0.713866	-0.652664	92.482694	-10.771390	-152.470762
52106		0.229555	0.108266	-0.713934	-0.652596	92.499509	-10.746676	-152.463639
52107		0.229421	0.108491	-0.713992	-0.652542	92.514661	-10.720578	-152.457387
52108		0.229316	0.108678	-0.714066	-0.652467	92.531600	-10.700607	-152.452056
52109		0.229225	0.108852	-0.714135	-0.652395	92.547329	-10.682497	-152.446449
52110		0.229145	0.108992	-0.714219	-0.652307	92.564794	-10.668486	-152.442995
52111		0.229062	0.109146	-0.714305	-0.652216	92.583029	-10.653348	-152.438608
52112		0.229001	0.109251	-0.714392	-0.652125	92.600128	-10.643739	-152.436469
52113		0.228962	0.109356	-0.714475	-0.652030	92.616507	-10.635947	-152.432325
52114		0.228926	0.109435	-0.714552	-0.651945	92.631368	-10.630117	-152.430024
52115		0.228893	0.109502	-0.714636	-0.651854	92.646943	-10.625747	-152.428565
52116		0.228871	0.109503	-0.714728	-0.651760	92.662436	-10.627379	-152.431654
52117		0.228827	0.109492	-0.714828	-0.651668	92.678749	-10.628443	-152.437747
52118		0.228774	0.109457	-0.714932	-0.651578	92.695210	-10.630635	-152.446530
52119		0.228727	0.109393	-0.715030	-0.651497	92.710108	-10.635158	-152.457149
52120		0.228684	0.109309	-0.715116	-0.651433	92.722289	-10.641144	-152.468863
52121		0.228648	0.109214	-0.715182	-0.651389	92.730922	-10.647563	-152.480604
52122		0.228627	0.109097	-0.715237	-0.651355	92.737276	-10.656626	-152.492773
52123		0.228629	0.108963	-0.715277	-0.651333	92.740678	-10.668377	-152.504123
52124		0.228664	0.108872	-0.715307	-0.651303	92.743428	-10.679342	-152.509129
52125		0.228666	0.108785	-0.715352	-0.651267	92.748852	-10.687853	-152.516702
52126		0.228713	0.108697	-0.715400	-0.651213	92.754663	-10.700350	-152.520711
52127		0.228757	0.108603	-0.715443	-0.651166	92.759645	-10.712884	-152.525313
52128		0.228815	0.108532	-0.715488	-0.651107	92.765520	-10.725067	-152.526920
52129		0.228897	0.108459	-0.715533	-0.651042	92.771199	-10.739479	-152.526642
52130		0.228979	0.108387	-0.715577	-0.650976	92.776941	-10.753809	-152.526369
52131		0.229052	0.108301	-0.715620	-0.650918	92.782011	-10.768261	-152.527925
52132		0.229128	0.108221	-0.715659	-0.650862	92.786642	-10.782440	-152.528677
52133		0.229175	0.108118	-0.715691	-0.650827	92.789542	-10.795602	-152.533656
52134		0.229210	0.107995	-0.715741	-0.650780	92.794982	-10.809711	-152.541499
52135		0.229203	0.107894	-0.715792	-0.650743	92.801030	-10.818573	-152.551122
52136		0.229193	0.107792	-0.715848	-0.650702	92.807864	-10.827528	-152.561157
52137		0.229166	0.107680	-0.715909	-0.650663	92.815395	-10.835926	-152.573534
52138		0.229119	0.107575	-0.715970	-0.650629	92.822992	-10.842070	-152.586929
52139		0.229072	0.107482	-0.716048	-0.650576	92.833753	-10.847951	-152.599609
52140		0.229023	0.107389	-0.716128	-0.650521	92.844776	-10.853704	-152.612466
52141		0.228968	0.107301	-0.716188	-0.650488	92.852763	-10.857795	-152.625237
52142		0.228923	0.107226	-0.716277	-0.650419	92.865763	-10.862982	-152.636502
52143		0.228857	0.107155	-0.716349	-0.650374	92.876105	-10.865377	-152.648864
52144		0.228804	0.107090	-0.716421	-0.650324	92.886579	-10.868446	-152.659670
52145		0.228768	0.107028	-0.716478	-0.650284	92.894570	-10.872122	-152.668569
52146		0.228737	0.106974	-0.716524	-0.650253	92.900879	-10.875219	-152.676270
52147		0.228689	0.106928	-0.716574	-0.650222	92.908182	-10.876472	-152.684886
52148		0.228627	0.106865	-0.716611	-0.650214	92.912741	-10.877148	-152.695760
52149		0.228587	0.106829	-0.716638	-0.650204	92.916393	-10.877310	-152.702463
52150		0.228540	0.106786	-0.716645	-0.650220	92.916575	-10.876690	-152.710051
52151		0.228529	0.106743	-0.716658	-0.650217	92.917611	-10.879326	-152.714622
52152		0.228511	0.106709	-0.716658	-0.650229	92.916814	-10.880275	-152.718892
52153		0.228508	0.106678	-0.716647	-0.650247	92.914199	-10.881824	-152.721550
52154		0.228509	0.106625	-0.716634	-0.650269	92.910797	-10.885317	-152.725626
52155		0.228547	0.106589	-0.716614	-0.650284	92.906518	-10.890576	-152.725105
52156		0.228564	0.106528	-0.716596	-0.650308	92.902018	-10.895830	-152.728299
52157		0.228603	0.106477	-0.716569	-0.650333	92.896260	-10.901955	-152.728898
52158		0.228636	0.106420	-0.716544	-0.650357	92.890817	-10.908100	-152.730378
52159		0.228653	0.106386	-0.716509	-0.650396	92.884024	-10.910663	-152.731198
52160		0.228682	0.106338	-0.716470	-0.650437	92.876372	-10.915150	-152.732102
52161		0.228699	0.106320	-0.716433	-0.650474	92.869841	-10.916529	-152.731592
52162		0.228712	0.106313	-0.716398	-0.650509	92.863736	-10.916763	-152.730642
52163		0.228726	0.106322	-0.716364	-0.650540	92.858337	-10.915997	-152.728225
52164		0.228714	0.106329	-0.716325	-0.650586	92.851935	-10.912852	-152.728018
52165		0.228710	0.106375	-0.716293	-0.650616	92.847589	-10.907749	-152.724162
52166		0.228727	0.106435	-0.716250	-0.650647	92.841893	-10.903056	-152.717100
52167		0.228726	0.106501	-0.716220	-0.650670	92.838418	-10.896858	-152.711374
52168		0.228744	0.106595	-0.716175	-0.650697	92.833259	-10.889720	-152.701453
52169		0.228757	0.106696	-0.716134	-0.650721	92.828831	-10.881744	-152.691611
52170		0.228770	0.106798	-0.716087	-0.650752	92.823335	-10.873453	-152.681386
52171		0.228785	0.106902	-0.716056	-0.650763	92.820734	-10.865884	-152.671209
52172		0.228774	0.107019	-0.716020	-0.650788	92.817558	-10.854741	-152.661997
52173		0.228769	0.107127	-0.716000	-0.650794	92.816708	-10.845521	-152.653243
52174		0.228745	0.107227	-0.715984	-0.650803	92.816505	-10.835376	-152.646885
52175		0.228695	0.107321	-0.715970	-0.650821	92.816453	-10.823545	-152.643184
52176		0.228651	0.107409	-0.715961	-0.650831	92.817060	-10.812776	-152.639495
52177		0.228598	0.107483	-0.715945	-0.650855	92.816138	-10.802037	-152.637664
52178		0.228539	0.107562	-0.715934	-0.650875	92.816155	-10.790477	-152.635920
52179		0.228480	0.107643	-0.715919	-0.650900	92.815499	-10.778684	-152.634051
52180		0.228416	0.107708	-0.715914	-0.650917	92.816199	-10.768118	-152.634039
52181		0.228347	0.107790	-0.715903	-0.650939	92.816416	-10.755498	-152.632880
52182		0.228302	0.107862	-0.715906	-0.650940	92.818516	-10.746368	-152.630744
52183		0.228216	0.107953	-0.715915	-0.650944	92.822304	-10.732511	-152.630666
52184		0.228141	0.108044	-0.715928	-0.650942	92.826588	-10.719725	-152.629685
52185		0.228062	0.108128	-0.715930	-0.650954	92.828895	-10.706596	-152.629437
52186		0.227993	0.108242	-0.715929	-0.650959	92.831558	-10.692105	-152.625927
52187		0.227910	0.108337	-0.715942	-0.650959	92.835956	-10.678332	-152.625298
52188		0.227824	0.108431	-0.715938	-0.650977	92.837569	-10.663677	-152.624729
52189		0.227748	0.108520	-0.715936	-0.650992	92.839271	-10.650312	-152.623728
52190		0.227686	0.108598	-0.715932	-0.651004	92.840555	-10.639054	-152.622464
52191		0.227594	0.108664	-0.715937	-0.651021	92.842862	-10.626188	-152.624790
52192		0.227495	0.108739	-0.715947	-0.651032	92.846326	-10.612353	-152.627142
52193		0.227409	0.108815	-0.715942	-0.651053	92.847420	-10.599026	-152.627971
52194		0.227341	0.108887	-0.715933	-0.651075	92.847567	-10.587406	-152.627635
52195		0.227281	0.108951	-0.715926	-0.651094	92.847866	-10.577099	-152.627287
52196		0.227210	0.108970	-0.715931	-0.651110	92.849115	-10.569641	-152.631710
52197		0.227159	0.109014	-0.715941	-0.651109	92.851921	-10.562307	-152.632588
52198		0.227094	0.109026	-0.715950	-0.651120	92.853602	-10.556028	-152.637152
52199		0.227032	0.109056	-0.715966	-0.651119	92.857012	-10.549059	-152.640066
52200		0.226980	0.109071	-0.715994	-0.651104	92.861934	-10.544555	-152.643640
52201		0.226921	0.109071	-0.716029	-0.651086	92.867847	-10.540697	-152.649070
52202		0.226841	0.109048	-0.716060	-0.651084	92.872394	-10.536637	-152.658096
52203		0.226773	0.109053	-0.716078	-0.651086	92.875532	-10.530992	-152.663628
52204		0.226699	0.109054	-0.716085	-0.651105	92.876573	-10.524719	-152.669773
52205		0.226628	0.109041	-0.716093	-0.651122	92.877619	-10.519851	-152.676976
52206		0.226541	0.109021	-0.716106	-0.651142	92.879160	-10.514127	-152.686044
52207		0.226489	0.109018	-0.716111	-0.651155	92.879945	-10.510038	-152.690704
52208		0.226424	0.109013	-0.716116	-0.651173	92.880540	-10.504789	-152.696584
52209		0.226378	0.109003	-0.716121	-0.651185	92.881059	-10.501753	-152.701282
52210		0.226334	0.109011	-0.716132	-0.651186	92.883199	-10.497782	-152.704483
52211		0.226281	0.109006	-0.716160	-0.651175	92.887628	-10.494649	-152.709745
52212		0.226238	0.109015	-0.716190	-0.651156	92.892882	-10.491352	-152.713042
52213		0.226198	0.109027	-0.716215	-0.651140	92.897316	-10.487944	-152.715721
52214		0.226155	0.109037	-0.716242	-0.651124	92.902030	-10.484481	-152.718884
52215		0.226125	0.109032	-0.716263	-0.651113	92.905326	-10.483088	-152.722185
52216		0.226084	0.109028	-0.716285	-0.651103	92.908994	-10.480718	-152.726223
52217		0.226041	0.109005	-0.716301	-0.651104	92.911069	-10.479279	-152.731904
52218		0.225994	0.108995	-0.716311	-0.651110	92.912507	-10.476284	-152.736768
52219		0.225958	0.108983	-0.716311	-0.651125	92.912153	-10.474070	-152.740757
52220		0.225942	0.108983	-0.716302	-0.651140	92.910638	-10.472286	-152.741971
52221		0.225942	0.108986	-0.716307	-0.651134	92.911587	-10.472180	-152.741823
52222		0.225970	0.108998	-0.716317	-0.651112	92.913425	-10.474167	-152.738570
52223		0.225995	0.109037	-0.716324	-0.651089	92.915599	-10.473832	-152.733459
52224		0.226030	0.109073	-0.716331	-0.651063	92.917718	-10.474481	-152.727614
52225		0.226065	0.109140	-0.716346	-0.651023	92.921986	-10.473225	-152.719536
52226		0.226100	0.109195	-0.716360	-0.650987	92.925653	-10.472798	-152.712219
52227		0.226138	0.109251	-0.716372	-0.650951	92.929047	-10.472505	-152.704725
52228		0.226155	0.109294	-0.716392	-0.650916	92.933538	-10.471634	-152.700011
52229		0.226179	0.109346	-0.716420	-0.650867	92.939626	-10.471062	-152.694168
52230		0.226201	0.109398	-0.716436	-0.650834	92.943525	-10.469826	-152.688284
52231		0.226221	0.109492	-0.716434	-0.650813	92.945555	-10.464536	-152.678941
52232		0.226237	0.109598	-0.716440	-0.650783	92.949293	-10.458405	-152.668933
52233		0.226263	0.109732	-0.716443	-0.650748	92.953081	-10.450909	-152.655836
52234		0.226290	0.109902	-0.716437	-0.650716	92.956415	-10.440525	-152.639541
52235		0.226339	0.110054	-0.716418	-0.650695	92.956913	-10.432934	-152.622755
52236		0.226393	0.110243	-0.716396	-0.650669	92.958039	-10.422840	-152.602421
52237		0.226434	0.110429	-0.716372	-0.650649	92.958741	-10.411709	-152.583478
52238		0.226490	0.110607	-0.716326	-0.650650	92.955496	-10.401697	-152.563443
52239		0.226554	0.110779	-0.716274	-0.650656	92.951158	-10.392532	-152.543276
52240		0.226626	0.110965	-0.716207	-0.650673	92.944730	-10.382466	-152.521134
52241		0.226691	0.111155	-0.716132	-0.650700	92.937030	-10.371130	-152.499040
52242		0.226779	0.111364	-0.716050	-0.650724	92.928698	-10.360188	-152.473469
52243		0.226854	0.111585	-0.715962	-0.650757	92.919469	-10.346946	-152.447811
52244		0.226916	0.111805	-0.715872	-0.650797	92.910050	-10.332541	-152.423292
52245		0.226973	0.112033	-0.715770	-0.650849	92.898942	-10.316663	-152.398455
52246		0.227058	0.112269	-0.715673	-0.650886	92.888772	-10.302832	-152.370585
52247		0.227106	0.112532	-0.715560	-0.650947	92.876679	-10.283065	-152.343400
52248		0.227183	0.112805	-0.715441	-0.651005	92.863693	-10.264785	-152.312956
52249		0.227266	0.113086	-0.715318	-0.651062	92.850498	-10.246439	-152.281235
52250		0.227362	0.113386	-0.715190	-0.651117	92.836833	-10.227622	-152.246859
52251		0.227474	0.113691	-0.715065	-0.651161	92.824023	-10.209957	-152.210757
52252		0.227587	0.113983	-0.714935	-0.651214	92.809913	-10.193066	-152.175528
52253		0.227730	0.114285	-0.714766	-0.651296	92.789661	-10.176515	-152.136529
52254		0.227873	0.114637	-0.714611	-0.651355	92.772931	-10.156767	-152.093555
52255		0.228026	0.114986	-0.714427	-0.651442	92.751467	-10.137046	-152.049670
52256		0.228208	0.115376	-0.714238	-0.651516	92.730325	-10.116548	-151.999818
52257		0.228426	0.115798	-0.714041	-0.651582	92.708707	-10.096487	-151.944345
52258		0.228672	0.116262	-0.713845	-0.651627	92.688477	-10.075988	-151.883112
52259		0.228965	0.116742	-0.713648	-0.651654	92.668592	-10.058325	-151.816507
52260		0.229311	0.117215	-0.713459	-0.651655	92.649957	-10.046043	-151.746286
52261		0.229721	0.117683	-0.713270	-0.651632	92.631390	-10.039925	-151.671055
52262		0.230214	0.118126	-0.713064	-0.651603	92.609390	-10.042194	-151.590636
52263		0.230753	0.118551	-0.712837	-0.651584	92.583389	-10.048805	-151.507538
52264		0.231351	0.118949	-0.712595	-0.651564	92.554376	-10.062022	-151.421481
52265		0.231967	0.119308	-0.712337	-0.651561	92.521673	-10.078903	-151.336840
52266		0.232583	0.119652	-0.712070	-0.651572	92.486922	-10.096459	-151.253338
52267		0.233186	0.119996	-0.711799	-0.651589	92.451749	-10.112779	-151.170830
52268		0.233739	0.120305	-0.711535	-0.651622	92.416670	-10.127564	-151.095423
52269		0.234253	0.120637	-0.711262	-0.651673	92.380962	-10.136746	-151.021300
52270		0.234693	0.120981	-0.711024	-0.651712	92.351088	-10.140015	-150.952896
52271		0.235113	0.121343	-0.710774	-0.651765	92.319983	-10.139742	-150.884533
52272		0.235478	0.121709	-0.710551	-0.651808	92.293456	-10.135476	-150.820794
52273		0.235807	0.122072	-0.710337	-0.651855	92.268207	-10.128658	-150.760515
52274		0.236108	0.122458	-0.710129	-0.651900	92.244734	-10.117813	-150.700847
52275		0.236372	0.122826	-0.709931	-0.651951	92.222395	-10.105577	-150.645751
52276		0.236621	0.123252	-0.709739	-0.651990	92.202698	-10.087965	-150.587514
52277		0.236849	0.123633	-0.709563	-0.652025	92.184545	-10.072551	-150.534721
52278		0.237065	0.124028	-0.709382	-0.652070	92.165777	-10.054708	-150.481863
52279		0.237260	0.124411	-0.709225	-0.652096	92.150916	-10.037095	-150.431956
52280		0.237431	0.124775	-0.709082	-0.652120	92.137644	-10.019249	-150.385988
52281		0.237585	0.125116	-0.708930	-0.652163	92.122434	-10.001267	-150.343085
52282		0.237734	0.125435	-0.708796	-0.652194	92.109474	-9.985204	-150.302728
52283		0.237862	0.125739	-0.708665	-0.652231	92.096646	-9.968554	-150.265395
52284		0.237989	0.126010	-0.708552	-0.652255	92.085815	-9.954910	-150.230991
52285		0.238113	0.126259	-0.708443	-0.652280	92.075093	-9.942861	-150.198762
52286		0.238229	0.126482	-0.708360	-0.652285	92.067849	-9.933136	-150.169643
52287		0.238320	0.126700	-0.708279	-0.652296	92.060983	-9.921753	-150.143143
52288		0.238402	0.126903	-0.708210	-0.652303	92.055423	-9.911055	-150.118721
52289		0.238461	0.127106	-0.708150	-0.652307	92.051515	-9.898770	-150.096434
52290		0.238519	0.127311	-0.708091	-0.652309	92.047795	-9.886343	-150.074042
52291		0.238581	0.127536	-0.708019	-0.652321	92.042413	-9.872200	-150.049496
52292		0.238626	0.127755	-0.707950	-0.652336	92.037587	-9.857151	-150.027026
52293		0.238658	0.128018	-0.707898	-0.652329	92.036706	-9.838528	-150.002160
52294		0.238692	0.128282	-0.707846	-0.652322	92.035883	-9.819918	-149.977049
52295		0.238730	0.128585	-0.707805	-0.652293	92.038069	-9.799368	-149.948609
52296		0.238754	0.128899	-0.707791	-0.652237	92.045092	-9.777965	-149.920788
52297		0.238765	0.129210	-0.707798	-0.652164	92.055381	-9.756555	-149.894681
52298		0.238736	0.129517	-0.707842	-0.652066	92.071692	-9.733613	-149.872667
52299		0.238674	0.129818	-0.707919	-0.651946	92.093296	-9.709595	-149.854357
52300		0.238582	0.130126	-0.708004	-0.651825	92.116478	-9.682858	-149.838102
52301		0.238466	0.130431	-0.708133	-0.651667	92.146731	-9.656221	-149.824630
52302		0.238358	0.130731	-0.708253	-0.651515	92.175557	-9.630288	-149.810898
52303		0.238227	0.131045	-0.708387	-0.651355	92.207008	-9.601789	-149.798066
52304		0.238127	0.131357	-0.708535	-0.651167	92.240747	-9.576988	-149.782963
52305		0.238057	0.131694	-0.708695	-0.650951	92.277157	-9.553447	-149.763359
52306		0.238038	0.132056	-0.708834	-0.650733	92.311182	-9.531673	-149.737226
52307		0.238101	0.132455	-0.708962	-0.650490	92.344315	-9.513968	-149.700779
52308		0.238195	0.132883	-0.709083	-0.650236	92.377412	-9.496616	-149.659493
52309		0.238356	0.133342	-0.709202	-0.649953	92.411120	-9.482910	-149.609817
52310		0.238569	0.133811	-0.709312	-0.649658	92.443835	-9.472655	-149.554810
52311		0.238842	0.134319	-0.709392	-0.649366	92.472723	-9.463622	-149.491232
52312		0.239167	0.134855	-0.709447	-0.649075	92.498591	-9.456005	-149.420589
52313		0.239552	0.135413	-0.709473	-0.648789	92.520259	-9.450899	-149.342734
52314		0.239986	0.135976	-0.709486	-0.648496	92.540255	-9.449211	-149.260072
52315		0.240460	0.136550	-0.709488	-0.648197	92.558811	-9.449867	-149.173128
52316		0.240971	0.137131	-0.709488	-0.647884	92.577354	-9.453210	-149.082266
52317		0.241553	0.137750	-0.709440	-0.647589	92.589257	-9.457973	-148.981765
52318		0.242213	0.138402	-0.709363	-0.647288	92.597446	-9.466018	-148.871666
52319		0.242938	0.139084	-0.709261	-0.646982	92.602757	-9.476478	-148.753186
52320		0.243741	0.139770	-0.709128	-0.646678	92.603181	-9.492344	-148.627406
52321		0.244611	0.140487	-0.708984	-0.646351	92.603009	-9.511315	-148.493201
52322		0.245521	0.141252	-0.708827	-0.646012	92.602212	-9.529912	-148.351536
52323		0.246464	0.142067	-0.708647	-0.645671	92.599599	-9.546923	-148.202523
52324		0.247367	0.142957	-0.708460	-0.645335	92.598278	-9.554690	-148.050667
52325		0.248280	0.143881	-0.708264	-0.644995	92.596824	-9.560512	-147.895061
52326		0.249186	0.144885	-0.708048	-0.644658	92.594956	-9.559318	-147.733198
52327		0.250157	0.146003	-0.707817	-0.644283	92.594736	-9.555081	-147.556158
52328		0.251145	0.147234	-0.707577	-0.643881	92.597149	-9.544058	-147.368235
52329		0.252184	0.148579	-0.707342	-0.643424	92.604683	-9.529894	-147.166663
52330		0.253237	0.150050	-0.707141	-0.642890	92.622532	-9.509848	-146.953936
52331		0.254368	0.151643	-0.706942	-0.642288	92.645534	-9.488510	-146.724374
52332		0.255607	0.153351	-0.706748	-0.641604	92.674024	-9.469228	-146.476204
52333		0.256923	0.155169	-0.706582	-0.640823	92.711927	-9.450898	-146.212628
52334		0.258357	0.157036	-0.706424	-0.639966	92.753639	-9.440502	-145.934947
52335		0.259914	0.158985	-0.706287	-0.639005	92.802753	-9.436991	-145.640144
52336		0.261575	0.160988	-0.706152	-0.637974	92.855087	-9.439805	-145.331808
52337		0.263336	0.163036	-0.705999	-0.636898	92.907153	-9.448130	-145.010860
52338		0.265153	0.165164	-0.705865	-0.635744	92.966458	-9.457757	-144.678431
52339		0.267007	0.167334	-0.705724	-0.634555	93.027331	-9.468267	-144.339071
52340		0.268866	0.169525	-0.705579	-0.633348	93.089595	-9.478451	-143.997309
52341		0.270704	0.171733	-0.705455	-0.632108	93.156951	-9.487428	-143.655886
52342		0.272509	0.173939	-0.705322	-0.630876	93.223912	-9.494063	-143.316990
52343		0.274258	0.176194	-0.705162	-0.629671	93.289463	-9.491617	-142.978245
52344		0.275953	0.178493	-0.704976	-0.628489	93.353795	-9.480935	-142.639904
52345		0.277569	0.180847	-0.704761	-0.627344	93.416789	-9.458495	-142.303057
52346		0.279119	0.183241	-0.704520	-0.626232	93.478378	-9.426762	-141.968043
52347		0.280582	0.185660	-0.704270	-0.625147	93.540727	-9.385751	-141.638019
52348		0.282026	0.188041	-0.703980	-0.624110	93.596403	-9.344155	-141.311998
52349		0.283423	0.190363	-0.703689	-0.623101	93.650491	-9.302807	-140.994611
52350		0.284801	0.192595	-0.703391	-0.622123	93.700713	-9.265950	-140.686081
52351		0.286146	0.194693	-0.703127	-0.621151	93.751712	-9.237490	-140.391758
52352		0.287480	0.196633	-0.702885	-0.620196	93.800376	-9.220178	-140.111627
52353		0.288822	0.198363	-0.702655	-0.619282	93.842285	-9.218405	-139.848277
52354		0.290205	0.199921	-0.702407	-0.618414	93.874103	-9.231072	-139.595390
52355		0.291661	0.201222	-0.702138	-0.617613	93.891208	-9.266001	-139.357555
52356		0.293213	0.202339	-0.701785	-0.616914	93.886532	-9.316823	-139.125547
52357		0.294866	0.203222	-0.701342	-0.616339	93.856669	-9.386748	-138.903237
52358		0.296656	0.203975	-0.700776	-0.615876	93.800820	-9.470069	-138.678279
52359		0.298465	0.204588	-0.700175	-0.615482	93.732952	-9.562059	-138.462697
52360		0.300361	0.205135	-0.699446	-0.615205	93.641376	-9.658357	-138.243276
52361		0.302309	0.205579	-0.698624	-0.615038	93.529719	-9.760088	-138.026485
52362		0.304147	0.206069	-0.697833	-0.614865	93.425592	-9.850483	-137.815358
52363		0.305895	0.206603	-0.697042	-0.614716	93.323450	-9.929596	-137.608026
52364		0.307578	0.207174	-0.696184	-0.614656	93.212401	-9.995974	-137.402288
52365		0.309160	0.207819	-0.695311	-0.614633	93.102565	-10.047237	-137.198766
52366		0.310673	0.208528	-0.694367	-0.614698	92.984314	-10.083209	-136.994807
52367		0.312176	0.209270	-0.693328	-0.614857	92.852671	-10.110009	-136.787693
52368		0.313689	0.210089	-0.692175	-0.615106	92.706704	-10.125344	-136.571622
52369		0.315166	0.210874	-0.690983	-0.615423	92.553107	-10.136549	-136.360918
52370		0.316605	0.211657	-0.689800	-0.615742	92.401424	-10.144703	-136.153683
52371		0.318001	0.212367	-0.688650	-0.616065	92.251980	-10.155405	-135.956541
52372		0.319372	0.213016	-0.687555	-0.616355	92.108651	-10.170839	-135.767172
52373		0.320723	0.213656	-0.686517	-0.616589	91.974361	-10.188581	-135.580798
52374		0.322015	0.214363	-0.685548	-0.616749	91.854727	-10.200682	-135.394923
52375		0.323237	0.215113	-0.684628	-0.616871	91.745458	-10.206662	-135.212115
52376		0.324350	0.215971	-0.683794	-0.616911	91.655626	-10.201301	-135.031246
52377		0.325349	0.216924	-0.683020	-0.616908	91.580411	-10.183142	-134.853273
52378		0.326207	0.218015	-0.682291	-0.616877	91.519582	-10.146166	-134.677220
52379		0.326961	0.219265	-0.681580	-0.616821	91.470033	-10.090677	-134.497619
52380		0.327630	0.220665	-0.680874	-0.616746	91.429474	-10.018233	-134.313425
52381		0.328232	0.222216	-0.680177	-0.616638	91.398591	-9.930778	-134.122777
52382		0.328794	0.223868	-0.679474	-0.616517	91.372648	-9.832981	-133.927396
52383		0.329291	0.225620	-0.678799	-0.616356	91.357226	-9.725119	-133.729879
52384		0.329785	0.227426	-0.678153	-0.616140	91.349960	-9.615544	-133.528435
52385		0.330283	0.229250	-0.677512	-0.615902	91.345371	-9.505961	-133.325060
52386		0.330871	0.231056	-0.676840	-0.615650	91.335834	-9.403965	-133.114644
52387		0.331551	0.232834	-0.676145	-0.615378	91.322035	-9.310932	-132.897810
52388		0.332388	0.234547	-0.675425	-0.615067	91.301676	-9.234931	-132.671751
52389		0.333329	0.236233	-0.674652	-0.614760	91.272519	-9.166747	-132.437796
52390		0.334393	0.237869	-0.673856	-0.614425	91.237703	-9.111676	-132.196459
52391		0.335480	0.239482	-0.673063	-0.614075	91.202886	-9.060585	-131.954931
52392		0.336541	0.241050	-0.672307	-0.613708	91.172213	-9.012468	-131.719544
52393		0.337542	0.242607	-0.671574	-0.613348	91.145039	-8.961091	-131.490816
52394		0.338529	0.244161	-0.670839	-0.612991	91.118193	-8.908647	-131.263544
