// General information: 
//  MT Manager version: 2022.2.0 
//  XDA version: 2022.2.0 build 7381 rev 124627 built on 2023-07-19
// Device information: 
//  DeviceId: 10B414FE
//  ProductCode: MTW2-3A7G6
//  Firmware Version: 4.14.0
//  Hardware Version: 3.0.0
// Device settings: 
//  Filter Profile: human(46.1)
//  Option Flags: Orientation Smoother Disabled, Position/Velocity Smoother Disabled, Continuous Zero Rotation Update Disabled, AHS Disabled, ICC Disabled
// Coordinate system: ENU
PacketCounter	SampleTimeFine	Quat_q0	Quat_q1	Quat_q2	Quat_q3	Roll	Pitch	Yaw
50856		-0.824196	0.506716	-0.117924	0.223683	-62.683511	-1.851162	-29.240724
50857		-0.824899	0.505744	-0.116383	0.224097	-62.507435	-1.986438	-29.191374
50858		-0.825505	0.504942	-0.114885	0.224446	-62.355220	-2.119792	-29.138124
50859		-0.826134	0.504044	-0.113488	0.224863	-62.194035	-2.244805	-29.098471
50860		-0.826784	0.503100	-0.112099	0.225282	-62.027433	-2.367874	-29.060163
50861		-0.827420	0.502184	-0.110760	0.225654	-61.866394	-2.484516	-29.020425
50862		-0.828028	0.501290	-0.109455	0.226048	-61.709343	-2.600263	-28.985186
50863		-0.828565	0.500444	-0.108373	0.226476	-61.565654	-2.699007	-28.967044
50864		-0.829073	0.499615	-0.107405	0.226910	-61.427867	-2.788017	-28.956455
50865		-0.829542	0.498859	-0.106443	0.227309	-61.300002	-2.877008	-28.942724
50866		-0.829978	0.498218	-0.105450	0.227586	-61.186232	-2.965358	-28.914511
50867		-0.830319	0.497708	-0.104592	0.227855	-61.093739	-3.045051	-28.893191
50868		-0.830620	0.497236	-0.103943	0.228084	-61.012680	-3.103988	-28.880180
50869		-0.830924	0.496676	-0.103490	0.228403	-60.926061	-3.147098	-28.888225
50870		-0.831212	0.496116	-0.103190	0.228710	-60.843977	-3.175093	-28.903962
50871		-0.831450	0.495569	-0.103048	0.229093	-60.768265	-3.193272	-28.936775
50872		-0.831632	0.495092	-0.103061	0.229457	-60.706352	-3.198015	-28.976530
50873		-0.831764	0.494674	-0.103179	0.229828	-60.655147	-3.195274	-29.022861
50874		-0.831864	0.494280	-0.103436	0.230198	-60.611237	-3.180050	-29.077198
50875		-0.831941	0.493874	-0.103835	0.230611	-60.570163	-3.153814	-29.144210
50876		-0.831982	0.493546	-0.104270	0.230968	-60.540387	-3.123303	-29.207387
50877		-0.831934	0.493379	-0.104730	0.231291	-60.532158	-3.093786	-29.267892
50878		-0.831829	0.493330	-0.105254	0.231535	-60.541400	-3.057635	-29.323620
50879		-0.831637	0.493431	-0.105831	0.231746	-60.571685	-3.019489	-29.378553
50880		-0.831406	0.493619	-0.106434	0.231899	-60.614228	-2.978387	-29.428933
50881		-0.831136	0.493876	-0.107094	0.232013	-60.667599	-2.932022	-29.478415
50882		-0.830856	0.494182	-0.107764	0.232054	-60.727736	-2.882137	-29.520910
50883		-0.830566	0.494498	-0.108495	0.232079	-60.791179	-2.825920	-29.565317
50884		-0.830269	0.494794	-0.109350	0.232107	-60.856003	-2.757567	-29.617486
50885		-0.829994	0.495010	-0.110376	0.232148	-60.915963	-2.671442	-29.681280
50886		-0.829747	0.495108	-0.111536	0.232268	-60.964842	-2.573605	-29.761620
50887		-0.829505	0.495158	-0.112862	0.232386	-61.013192	-2.458579	-29.851739
50888		-0.829260	0.495181	-0.114329	0.232492	-61.062946	-2.328784	-29.949168
50889		-0.829094	0.495054	-0.115895	0.232580	-61.096829	-2.183681	-30.051193
50890		-0.828959	0.494905	-0.117481	0.232580	-61.129111	-2.030749	-30.145516
50891		-0.828816	0.494806	-0.119118	0.232469	-61.169984	-1.868154	-30.231563
50892		-0.828736	0.494616	-0.120824	0.232277	-61.202003	-1.691218	-30.313797
50893		-0.828728	0.494305	-0.122614	0.232030	-61.221767	-1.499084	-30.395811
50894		-0.828820	0.493864	-0.124383	0.231699	-61.224529	-1.299184	-30.468171
50895		-0.829005	0.493293	-0.126129	0.231310	-61.210433	-1.093447	-30.533603
50896		-0.829253	0.492651	-0.127859	0.230838	-61.187066	-0.881807	-30.589644
50897		-0.829567	0.491939	-0.129551	0.230287	-61.153945	-0.666432	-30.635391
50898		-0.830009	0.491050	-0.131141	0.229687	-61.095065	-0.451431	-30.670157
50899		-0.830548	0.490082	-0.132575	0.228986	-61.020782	-0.242068	-30.684955
50900		-0.831139	0.489148	-0.133807	0.228115	-60.944340	-0.042358	-30.670163
50901		-0.831825	0.488107	-0.134995	0.227146	-60.852674	0.162825	-30.642344
50902		-0.832581	0.486944	-0.136153	0.226178	-60.744424	0.369250	-30.612661
50903		-0.833377	0.485775	-0.137235	0.225105	-60.632907	0.575055	-30.567328
50904		-0.834168	0.484666	-0.138280	0.223922	-60.527838	0.781685	-30.508375
50905		-0.834934	0.483639	-0.139302	0.222651	-60.432357	0.988423	-30.438742
50906		-0.835653	0.482707	-0.140346	0.221315	-60.349935	1.197610	-30.363678
50907		-0.836318	0.481855	-0.141437	0.219961	-60.279348	1.409260	-30.289648
50908		-0.836955	0.481041	-0.142597	0.218568	-60.216002	1.628249	-30.215736
50909		-0.837607	0.480213	-0.143743	0.217136	-60.150304	1.848541	-30.136764
50910		-0.838310	0.479215	-0.144948	0.215825	-60.065273	2.072850	-30.073239
50911		-0.838987	0.478102	-0.146397	0.214678	-59.974848	2.313901	-30.040863
50912		-0.839584	0.477000	-0.147978	0.213713	-59.891023	2.556156	-30.034960
50913		-0.840166	0.475781	-0.149699	0.212942	-59.798152	2.803820	-30.056981
50914		-0.840730	0.474432	-0.151586	0.212388	-59.695846	3.058652	-30.110593
50915		-0.841273	0.472976	-0.153645	0.212008	-59.587296	3.323048	-30.192015
50916		-0.841815	0.471394	-0.155856	0.211765	-59.469658	3.597956	-30.296043
50917		-0.842304	0.469800	-0.158220	0.211610	-59.357566	3.882454	-30.418072
50918		-0.842684	0.468325	-0.160731	0.211473	-59.267513	4.175647	-30.551113
50919		-0.843039	0.466891	-0.163243	0.211303	-59.183735	4.469560	-30.681017
50920		-0.843417	0.465508	-0.165620	0.210998	-59.101846	4.757110	-30.788941
50921		-0.843707	0.464420	-0.167815	0.210501	-59.050363	5.028537	-30.867189
50922		-0.844007	0.463417	-0.169836	0.209886	-59.003041	5.287695	-30.923132
50923		-0.844324	0.462473	-0.171694	0.209184	-58.956801	5.534603	-30.960268
50924		-0.844562	0.461744	-0.173425	0.208401	-58.932757	5.766851	-30.982503
50925		-0.844716	0.461229	-0.175053	0.207554	-58.931528	5.985722	-30.993058
50926		-0.844746	0.461006	-0.176531	0.206673	-58.961213	6.182367	-30.992842
50927		-0.844698	0.460958	-0.177894	0.205806	-59.008348	6.361303	-30.988155
50928		-0.844612	0.460966	-0.179183	0.205023	-59.060012	6.526542	-30.988126
50929		-0.844476	0.461062	-0.180370	0.204326	-59.119059	6.674157	-30.991443
50930		-0.844266	0.461303	-0.181447	0.203692	-59.192315	6.802747	-30.995501
50931		-0.844015	0.461617	-0.182437	0.203139	-59.271432	6.916031	-31.003095
50932		-0.843733	0.461960	-0.183367	0.202693	-59.352424	7.016381	-31.018355
50933		-0.843406	0.462378	-0.184227	0.202319	-59.440301	7.103460	-31.037331
50934		-0.843016	0.462942	-0.184973	0.201977	-59.541993	7.172852	-31.053564
50935		-0.842613	0.463554	-0.185605	0.201670	-59.645260	7.227872	-31.066781
50936		-0.842204	0.464212	-0.186123	0.201389	-59.749597	7.269327	-31.075735
50937		-0.841799	0.464872	-0.186562	0.201157	-59.851087	7.300333	-31.084872
50938		-0.841382	0.465546	-0.186967	0.200963	-59.953181	7.325534	-31.095902
50939		-0.840976	0.466241	-0.187272	0.200766	-60.053720	7.340824	-31.100519
50940		-0.840592	0.466920	-0.187506	0.200582	-60.149137	7.349475	-31.101756
50941		-0.840188	0.467611	-0.187742	0.200442	-60.246561	7.355120	-31.107815
50942		-0.839679	0.468437	-0.188046	0.200359	-60.364314	7.358937	-31.125023
50943		-0.839109	0.469364	-0.188313	0.200329	-60.493570	7.352653	-31.146183
50944		-0.838562	0.470289	-0.188416	0.200355	-60.615829	7.327866	-31.162453
50945		-0.838006	0.471201	-0.188475	0.200482	-60.735059	7.293448	-31.186075
50946		-0.837389	0.472205	-0.188516	0.200661	-60.865419	7.250957	-31.214467
50947		-0.836654	0.473426	-0.188531	0.200833	-61.022539	7.198764	-31.242043
50948		-0.835875	0.474756	-0.188451	0.201011	-61.189439	7.133425	-31.264812
50949		-0.835105	0.476025	-0.188390	0.201270	-61.349712	7.067081	-31.296392
50950		-0.834312	0.477323	-0.188307	0.201563	-61.513105	6.995506	-31.330262
50951		-0.833457	0.478736	-0.188183	0.201861	-61.689568	6.915710	-31.362595
50952		-0.832580	0.480182	-0.188032	0.202187	-61.869322	6.830329	-31.396013
50953		-0.831748	0.481509	-0.187880	0.202596	-62.034131	6.744025	-31.436817
50954		-0.830976	0.482628	-0.187803	0.203175	-62.176315	6.661503	-31.498165
50955		-0.830246	0.483606	-0.187770	0.203863	-62.302791	6.581266	-31.572411
50956		-0.829481	0.484582	-0.187779	0.204647	-62.431247	6.498724	-31.659025
50957		-0.828720	0.485423	-0.187936	0.205591	-62.549433	6.424613	-31.770536
50958		-0.828002	0.486114	-0.188184	0.206621	-62.652540	6.358614	-31.895649
50959		-0.827341	0.486684	-0.188434	0.207697	-62.740309	6.294153	-32.024677
50960		-0.826755	0.487123	-0.188635	0.208816	-62.809354	6.227208	-32.154005
50961		-0.826187	0.487499	-0.188880	0.209962	-62.872286	6.164709	-32.288506
50962		-0.825631	0.487813	-0.189170	0.211156	-62.929395	6.105540	-32.430480
50963		-0.825112	0.488037	-0.189478	0.212386	-62.975838	6.048856	-32.576631
50964		-0.824589	0.488237	-0.189867	0.213608	-63.022807	6.000788	-32.727281
50965		-0.824067	0.488452	-0.190249	0.214788	-63.071237	5.953855	-32.873282
50966		-0.823630	0.488523	-0.190677	0.215919	-63.103085	5.919520	-33.016524
50967		-0.823301	0.488466	-0.191034	0.216986	-63.115109	5.887611	-33.147812
50968		-0.823024	0.488369	-0.191368	0.217957	-63.120748	5.860957	-33.267737
50969		-0.822791	0.488222	-0.191718	0.218857	-63.120511	5.842095	-33.381174
50970		-0.822613	0.488045	-0.192026	0.219652	-63.114223	5.827095	-33.481086
50971		-0.822533	0.487756	-0.192254	0.220391	-63.089888	5.812667	-33.569452
50972		-0.822566	0.487397	-0.192328	0.220994	-63.049238	5.795725	-33.633339
50973		-0.822668	0.487088	-0.192213	0.221395	-63.005837	5.772423	-33.664568
50974		-0.822741	0.486940	-0.192004	0.221632	-62.978204	5.744685	-33.673807
50975		-0.822918	0.486791	-0.191613	0.221642	-62.941549	5.714809	-33.648195
50976		-0.823276	0.486495	-0.190994	0.221495	-62.875480	5.679804	-33.590610
50977		-0.823762	0.486044	-0.190307	0.221269	-62.786378	5.649492	-33.519680
50978		-0.824328	0.485602	-0.189504	0.220824	-62.692531	5.621811	-33.419039
50979		-0.825032	0.485020	-0.188555	0.220281	-62.574370	5.592190	-33.298252
50980		-0.825924	0.484149	-0.187456	0.219794	-62.412960	5.556252	-33.171778
50981		-0.826972	0.483146	-0.186050	0.219254	-62.221430	5.500420	-33.019260
50982		-0.828048	0.482354	-0.184116	0.218566	-62.033836	5.397337	-32.819103
50983		-0.829029	0.481974	-0.181745	0.217671	-61.880106	5.251104	-32.572336
50984		-0.829663	0.482311	-0.179247	0.216579	-61.813264	5.078001	-32.301723
50985		-0.829950	0.483334	-0.176690	0.215296	-61.832339	4.885660	-32.012008
50986		-0.830172	0.484604	-0.173889	0.213857	-61.874236	4.671574	-31.692299
50987		-0.830450	0.485747	-0.171088	0.212442	-61.901813	4.460595	-31.374648
50988		-0.830750	0.486604	-0.168588	0.211303	-61.907429	4.270586	-31.103434
50989		-0.831227	0.486885	-0.166425	0.210495	-61.854897	4.111656	-30.885109
50990		-0.831961	0.486432	-0.164573	0.210097	-61.722519	3.981796	-30.725507
50991		-0.832840	0.485408	-0.163173	0.210076	-61.536040	3.890436	-30.630762
50992		-0.833783	0.484046	-0.162152	0.210265	-61.322113	3.832704	-30.580440
50993		-0.834766	0.482470	-0.161378	0.210583	-61.090899	3.797231	-30.558049
50994		-0.835756	0.480777	-0.160774	0.210991	-60.852034	3.776034	-30.555352
50995		-0.836755	0.479067	-0.160163	0.211384	-60.610888	3.755560	-30.550879
50996		-0.837722	0.477511	-0.159333	0.211704	-60.380957	3.713705	-30.526124
50997		-0.838518	0.476300	-0.158457	0.211935	-60.193449	3.660802	-30.491109
50998		-0.839146	0.475320	-0.157680	0.212229	-60.039397	3.605109	-30.469742
50999		-0.839719	0.474432	-0.156874	0.212548	-59.896223	3.542028	-30.449614
51000		-0.840105	0.473772	-0.156218	0.212980	-59.788094	3.478273	-30.451473
51001		-0.840272	0.473328	-0.155838	0.213583	-59.718469	3.422715	-30.488565
51002		-0.840365	0.472994	-0.155433	0.214252	-59.661872	3.357245	-30.531379
51003		-0.840383	0.472833	-0.154918	0.214910	-59.623166	3.276057	-30.566974
51004		-0.840294	0.472880	-0.154361	0.215553	-59.609228	3.184736	-30.599264
51005		-0.840048	0.473082	-0.154022	0.216308	-59.623423	3.101737	-30.656878
51006		-0.839652	0.473450	-0.153880	0.217142	-59.666217	3.026640	-30.735088
51007		-0.839230	0.473890	-0.153657	0.217971	-59.715066	2.941702	-30.808026
51008		-0.838788	0.474343	-0.153469	0.218818	-59.766990	2.858367	-30.884961
51009		-0.838235	0.474870	-0.153484	0.219782	-59.836044	2.784239	-30.986468
51010		-0.837623	0.475395	-0.153666	0.220850	-59.911497	2.719527	-31.108779
51011		-0.836974	0.475802	-0.154119	0.222113	-59.982561	2.672294	-31.267220
51012		-0.836153	0.476316	-0.154946	0.223524	-60.081872	2.646928	-31.464021
51013		-0.835243	0.477012	-0.155802	0.224842	-60.205499	2.622807	-31.653696
51014		-0.834518	0.477513	-0.156387	0.226062	-60.293733	2.586090	-31.816263
51015		-0.833907	0.477717	-0.157111	0.227380	-60.349961	2.566812	-31.996573
51016		-0.833095	0.478043	-0.158371	0.228795	-60.442927	2.586618	-32.220220
51017		-0.832042	0.478911	-0.159745	0.229851	-60.609196	2.617763	-32.415685
51018		-0.831158	0.479871	-0.160694	0.230387	-60.769803	2.637250	-32.531999
51019		-0.830813	0.480314	-0.160936	0.230538	-60.836024	2.633938	-32.563636
51020		-0.830790	0.480559	-0.160584	0.230357	-60.852812	2.603453	-32.523852
51021		-0.830487	0.481769	-0.159670	0.229556	-60.969287	2.523051	-32.388308
51022		-0.829708	0.484231	-0.158283	0.228146	-61.226250	2.390304	-32.163919
51023		-0.828753	0.487145	-0.156728	0.226481	-61.535349	2.241937	-31.904013
51024		-0.827891	0.489942	-0.155066	0.224739	-61.826778	2.093897	-31.628875
51025		-0.827137	0.492542	-0.153430	0.222949	-62.095661	1.959403	-31.349939
51026		-0.826440	0.495031	-0.151881	0.221074	-62.354965	1.843153	-31.067493
51027		-0.825816	0.497320	-0.150510	0.219197	-62.596495	1.751514	-30.795456
51028		-0.825313	0.499298	-0.149329	0.217395	-62.806162	1.684529	-30.542452
51029		-0.824939	0.500997	-0.148245	0.215641	-62.984239	1.634036	-30.299988
51030		-0.824595	0.502624	-0.147247	0.213847	-63.156803	1.597000	-30.058790
51031		-0.824319	0.504068	-0.146391	0.212095	-63.311418	1.577324	-29.830627
51032		-0.824116	0.505313	-0.145677	0.210402	-63.445910	1.574258	-29.617249
51033		-0.824021	0.506380	-0.144946	0.208708	-63.556964	1.576148	-29.402461
51034		-0.823996	0.507261	-0.144272	0.207128	-63.646254	1.582895	-29.202609
51035		-0.824034	0.507953	-0.143674	0.205693	-63.713851	1.594225	-29.021828
51036		-0.824106	0.508585	-0.142998	0.204307	-63.771192	1.597376	-28.841069
51037		-0.824108	0.509315	-0.142297	0.202967	-63.840559	1.592309	-28.663618
51038		-0.823977	0.510166	-0.141731	0.201755	-63.930917	1.587785	-28.507803
51039		-0.823693	0.511195	-0.141244	0.200648	-64.047478	1.578314	-28.367853
51040		-0.823347	0.512321	-0.140722	0.199563	-64.175781	1.561230	-28.228204
51041		-0.822983	0.513416	-0.140257	0.198572	-64.302324	1.544776	-28.101486
51042		-0.822602	0.514419	-0.139982	0.197747	-64.423799	1.538498	-28.003243
51043		-0.822225	0.515350	-0.139811	0.197011	-64.539461	1.538721	-27.920516
51044		-0.821927	0.516113	-0.139651	0.196371	-64.633603	1.539493	-27.847869
51045		-0.821739	0.516676	-0.139482	0.195794	-64.701398	1.542098	-27.780565
51046		-0.821659	0.517023	-0.139316	0.195334	-64.740882	1.544625	-27.724734
51047		-0.821548	0.517336	-0.139301	0.194981	-64.781359	1.555383	-27.689212
51048		-0.821320	0.517780	-0.139393	0.194698	-64.842656	1.567288	-27.667686
51049		-0.821060	0.518275	-0.139441	0.194444	-64.909130	1.571637	-27.646328
51050		-0.820858	0.518664	-0.139477	0.194230	-64.961456	1.575947	-27.628020
51051		-0.820723	0.518905	-0.139560	0.194100	-64.995963	1.583984	-27.620824
51052		-0.820622	0.519018	-0.139772	0.194074	-65.017962	1.601310	-27.632070
51053		-0.820526	0.519084	-0.140048	0.194101	-65.036125	1.622646	-27.652596
51054		-0.820457	0.519040	-0.140470	0.194205	-65.044903	1.656039	-27.690018
51055		-0.820413	0.518877	-0.141023	0.194426	-65.042652	1.697792	-27.747160
51056		-0.820414	0.518590	-0.141662	0.194723	-65.027109	1.746704	-27.817240
51057		-0.820464	0.518174	-0.142377	0.195099	-64.997540	1.801601	-27.899809
51058		-0.820513	0.517699	-0.143170	0.195573	-64.963065	1.859512	-27.997038
51059		-0.820544	0.517260	-0.143946	0.196032	-64.932921	1.915681	-28.091723
51060		-0.820577	0.516870	-0.144605	0.196438	-64.905133	1.962979	-28.173688
51061		-0.820579	0.516560	-0.145201	0.196806	-64.885722	2.004242	-28.247992
51062		-0.820532	0.516322	-0.145810	0.197175	-64.876392	2.044333	-28.323457
51063		-0.820450	0.516163	-0.146339	0.197541	-64.874628	2.074624	-28.393617
51064		-0.820348	0.516029	-0.146842	0.197938	-64.875479	2.099820	-28.465267
51065		-0.820242	0.515860	-0.147389	0.198415	-64.873258	2.124999	-28.547616
51066		-0.820120	0.515696	-0.147961	0.198916	-64.872830	2.150887	-28.634122
51067		-0.819975	0.515595	-0.148499	0.199375	-64.879408	2.174177	-28.714281
51068		-0.819781	0.515605	-0.148972	0.199795	-64.898242	2.190203	-28.786648
51069		-0.819542	0.515680	-0.149465	0.200214	-64.926400	2.206046	-28.860397
51070		-0.819279	0.515797	-0.149959	0.200618	-64.960061	2.221353	-28.932801
51071		-0.819051	0.515854	-0.150416	0.201059	-64.984711	2.232961	-29.006479
51072		-0.818830	0.515846	-0.150948	0.201583	-65.003597	2.248224	-29.093117
51073		-0.818553	0.515913	-0.151473	0.202140	-65.032328	2.258277	-29.182826
51074		-0.818312	0.515976	-0.151857	0.202663	-65.055330	2.257721	-29.259975
51075		-0.818113	0.515971	-0.152208	0.203217	-65.068209	2.254517	-29.337832
51076		-0.817864	0.516004	-0.152633	0.203817	-65.088882	2.253712	-29.425247
51077		-0.817568	0.516098	-0.153079	0.204430	-65.118461	2.251892	-29.515541
51078		-0.817283	0.516176	-0.153519	0.205043	-65.145603	2.249992	-29.605335
51079		-0.817014	0.516185	-0.154021	0.205717	-65.166269	2.252252	-29.705158
51080		-0.816694	0.516239	-0.154578	0.206429	-65.195075	2.255348	-29.812424
51081		-0.816376	0.516305	-0.155109	0.207124	-65.224421	2.256652	-29.916381
51082		-0.816086	0.516312	-0.155638	0.207852	-65.245980	2.257728	-30.023439
51083		-0.815792	0.516289	-0.156225	0.208623	-65.266015	2.262312	-30.138444
51084		-0.815428	0.516359	-0.156835	0.209411	-65.299318	2.264559	-30.256957
51085		-0.815008	0.516541	-0.157455	0.210130	-65.347578	2.267968	-30.369574
51086		-0.814656	0.516655	-0.157981	0.210819	-65.383353	2.267096	-30.472892
51087		-0.814347	0.516731	-0.158425	0.211495	-65.411077	2.261174	-30.569452
51088		-0.814045	0.516814	-0.158834	0.212145	-65.438429	2.253262	-30.661199
51089		-0.813742	0.516907	-0.159240	0.212777	-65.466860	2.245930	-30.751003
51090		-0.813467	0.516967	-0.159621	0.213396	-65.490136	2.238278	-30.837815
51091		-0.813222	0.517020	-0.159942	0.213958	-65.510187	2.229133	-30.915087
51092		-0.812964	0.517100	-0.160268	0.214503	-65.533864	2.220488	-30.990939
51093		-0.812645	0.517186	-0.160754	0.215140	-65.564826	2.219967	-31.086488
51094		-0.812340	0.517259	-0.161244	0.215748	-65.594077	2.222155	-31.179486
51095		-0.812078	0.517294	-0.161677	0.216326	-65.616253	2.222513	-31.265601
51096		-0.811830	0.517310	-0.162092	0.216906	-65.635335	2.221746	-31.350744
51097		-0.811571	0.517361	-0.162498	0.217452	-65.658486	2.221085	-31.432030
51098		-0.811300	0.517445	-0.162895	0.217964	-65.685780	2.220456	-31.509474
51099		-0.811008	0.517574	-0.163321	0.218424	-65.720019	2.224061	-31.583704
51100		-0.810739	0.517707	-0.163678	0.218842	-65.752029	2.224153	-31.649192
51101		-0.810483	0.517813	-0.164096	0.219224	-65.782852	2.232813	-31.715116
51102		-0.810229	0.517918	-0.164525	0.219593	-65.814038	2.243368	-31.780516
51103		-0.810049	0.517957	-0.164873	0.219903	-65.833441	2.252871	-31.834450
51104		-0.809919	0.517948	-0.165179	0.220176	-65.844709	2.262868	-31.881884
51105		-0.809794	0.517948	-0.165514	0.220382	-65.858376	2.279310	-31.924531
51106		-0.809719	0.517904	-0.165788	0.220557	-65.863828	2.294063	-31.959930
51107		-0.809710	0.517787	-0.166028	0.220684	-65.858229	2.311653	-31.988199
51108		-0.809740	0.517678	-0.166149	0.220740	-65.848868	2.322853	-32.001593
51109		-0.809755	0.517582	-0.166307	0.220789	-65.842683	2.337303	-32.016668
51110		-0.809742	0.517546	-0.166494	0.220782	-65.845506	2.355773	-32.028305
51111		-0.809726	0.517538	-0.166646	0.220742	-65.850620	2.372181	-32.034356
51112		-0.809757	0.517479	-0.166775	0.220671	-65.848002	2.390417	-32.035582
51113		-0.809827	0.517377	-0.166877	0.220574	-65.838645	2.409555	-32.032457
51114		-0.809895	0.517314	-0.166947	0.220420	-65.832967	2.428164	-32.021565
51115		-0.809974	0.517238	-0.167016	0.220255	-65.825696	2.447786	-32.009441
51116		-0.810062	0.517172	-0.167078	0.220041	-65.819226	2.469607	-31.992035
51117		-0.810213	0.517056	-0.167048	0.219777	-65.802564	2.488311	-31.963500
51118		-0.810374	0.516994	-0.166915	0.219430	-65.788689	2.501144	-31.919939
51119		-0.810471	0.517018	-0.166849	0.219068	-65.788710	2.517751	-31.879454
51120		-0.810519	0.517100	-0.166817	0.218720	-65.797606	2.534276	-31.842832
51121		-0.810591	0.517143	-0.166772	0.218385	-65.801105	2.550263	-31.806642
51122		-0.810714	0.517123	-0.166678	0.218049	-65.794221	2.564215	-31.766872
51123		-0.810863	0.517054	-0.166591	0.217725	-65.781285	2.579957	-31.728621
51124		-0.810987	0.516996	-0.166528	0.217448	-65.770738	2.594350	-31.696636
51125		-0.811128	0.516899	-0.166504	0.217170	-65.756836	2.613657	-31.667101
51126		-0.811301	0.516746	-0.166460	0.216921	-65.734761	2.631550	-31.638960
51127		-0.811481	0.516598	-0.166435	0.216622	-65.713957	2.654048	-31.607058
51128		-0.811638	0.516478	-0.166424	0.216327	-65.697356	2.676418	-31.576660
51129		-0.811762	0.516428	-0.166388	0.216009	-65.688999	2.695543	-31.542389
51130		-0.811842	0.516461	-0.166334	0.215670	-65.690701	2.711317	-31.505195
51131		-0.811936	0.516512	-0.166215	0.215285	-65.692026	2.723611	-31.458997
51132		-0.812019	0.516556	-0.166112	0.214945	-65.693303	2.734646	-31.418519
51133		-0.812086	0.516624	-0.166010	0.214609	-65.697559	2.744558	-31.378468
51134		-0.812172	0.516680	-0.165864	0.214262	-65.698583	2.751851	-31.334433
51135		-0.812250	0.516767	-0.165677	0.213900	-65.702030	2.755201	-31.286184
51136		-0.812358	0.516781	-0.165531	0.213568	-65.697613	2.763054	-31.243504
51137		-0.812391	0.516865	-0.165472	0.213283	-65.705850	2.772990	-31.211565
51138		-0.812444	0.516918	-0.165399	0.213010	-65.709534	2.782072	-31.179573
51139		-0.812495	0.517000	-0.165261	0.212725	-65.714331	2.785050	-31.142392
51140		-0.812505	0.517143	-0.165151	0.212422	-65.728373	2.789467	-31.105373
51141		-0.812469	0.517344	-0.165076	0.212133	-65.751221	2.794044	-31.072234
51142		-0.812492	0.517469	-0.164942	0.211839	-65.761978	2.796453	-31.034484
51143		-0.812506	0.517614	-0.164757	0.211576	-65.773291	2.791511	-30.996526
51144		-0.812514	0.517763	-0.164564	0.211332	-65.784839	2.784584	-30.959829
51145		-0.812506	0.517913	-0.164398	0.211126	-65.797647	2.777555	-30.928803
51146		-0.812509	0.518020	-0.164242	0.210972	-65.805264	2.769634	-30.903587
51147		-0.812517	0.518136	-0.164050	0.210804	-65.812767	2.759064	-30.874510
51148		-0.812546	0.518222	-0.163849	0.210640	-65.815893	2.748627	-30.845112
51149		-0.812592	0.518260	-0.163668	0.210510	-65.813546	2.739360	-30.820289
51150		-0.812611	0.518324	-0.163511	0.210397	-65.815681	2.730318	-30.798922
51151		-0.812642	0.518349	-0.163371	0.210326	-65.813403	2.721419	-30.782661
51152		-0.812671	0.518385	-0.163199	0.210259	-65.811216	2.709012	-30.764744
51153		-0.812719	0.518404	-0.162992	0.210189	-65.805467	2.694351	-30.744118
51154		-0.812739	0.518454	-0.162815	0.210125	-65.805101	2.680787	-30.726278
51155		-0.812775	0.518458	-0.162680	0.210080	-65.800214	2.671474	-30.712847
51156		-0.812776	0.518502	-0.162566	0.210056	-65.801628	2.661240	-30.703031
51157		-0.812815	0.518473	-0.162479	0.210045	-65.794330	2.655252	-30.696140
51158		-0.812840	0.518453	-0.162412	0.210050	-65.789054	2.649560	-30.692177
51159		-0.812903	0.518380	-0.162308	0.210063	-65.775532	2.642045	-30.686341
51160		-0.812959	0.518318	-0.162224	0.210067	-65.764099	2.636500	-30.681028
51161		-0.813026	0.518225	-0.162136	0.210103	-65.748593	2.629663	-30.678590
51162		-0.813067	0.518163	-0.162068	0.210149	-65.737821	2.622843	-30.678482
51163		-0.813110	0.518108	-0.161952	0.210208	-65.726215	2.610584	-30.676597
51164		-0.813180	0.518023	-0.161804	0.210262	-65.709344	2.597055	-30.671933
51165		-0.813231	0.517972	-0.161665	0.210297	-65.697261	2.584162	-30.666116
51166		-0.813223	0.517991	-0.161550	0.210371	-65.695348	2.568377	-30.665986
51167		-0.813198	0.518015	-0.161479	0.210461	-65.695888	2.555350	-30.670259
51168		-0.813203	0.518016	-0.161363	0.210528	-65.691667	2.540618	-30.669318
51169		-0.813226	0.517978	-0.161246	0.210620	-65.682293	2.525612	-30.670743
51170		-0.813214	0.517951	-0.161211	0.210765	-65.677442	2.514129	-30.682682
51171		-0.813196	0.517926	-0.161168	0.210926	-65.672710	2.500817	-30.695891
51172		-0.813221	0.517865	-0.161068	0.211058	-65.660995	2.485644	-30.702190
51173		-0.813272	0.517755	-0.160976	0.211200	-65.643212	2.472219	-30.709990
51174		-0.813283	0.517671	-0.160955	0.211379	-65.631675	2.461854	-30.726196
51175		-0.813309	0.517542	-0.160963	0.211590	-65.615288	2.453730	-30.747479
51176		-0.813347	0.517386	-0.160967	0.211819	-65.595333	2.444954	-30.770111
51177		-0.813391	0.517227	-0.160972	0.212037	-65.574984	2.437143	-30.791782
51178		-0.813429	0.517072	-0.160976	0.212266	-65.555017	2.428371	-30.814427
51179		-0.813492	0.516882	-0.160966	0.212494	-65.530067	2.419783	-30.836007
51180		-0.813553	0.516693	-0.160944	0.212736	-65.504842	2.409141	-30.858149
51181		-0.813618	0.516516	-0.160880	0.212969	-65.479352	2.394819	-30.876715
51182		-0.813677	0.516373	-0.160807	0.213143	-65.458108	2.382267	-30.888951
51183		-0.813706	0.516277	-0.160738	0.213318	-65.443061	2.368407	-30.901607
51184		-0.813742	0.516181	-0.160653	0.213476	-65.427333	2.354077	-30.911555
51185		-0.813779	0.516089	-0.160554	0.213632	-65.411647	2.338594	-30.920456
51186		-0.813801	0.515992	-0.160514	0.213810	-65.397683	2.327078	-30.935253
51187		-0.813830	0.515905	-0.160449	0.213959	-65.383941	2.314864	-30.945640
51188		-0.813875	0.515790	-0.160374	0.214122	-65.366131	2.301906	-30.956756
51189		-0.813906	0.515692	-0.160324	0.214277	-65.351541	2.291031	-30.968671
51190		-0.813936	0.515623	-0.160243	0.214392	-65.339500	2.278969	-30.974704
51191		-0.813941	0.515600	-0.160168	0.214481	-65.333742	2.267276	-30.978615
51192		-0.813931	0.515593	-0.160116	0.214577	-65.330897	2.256775	-30.984739
51193		-0.813912	0.515609	-0.160070	0.214644	-65.331292	2.247822	-30.988470
51194		-0.813941	0.515586	-0.159974	0.214661	-65.324553	2.238923	-30.983927
51195		-0.813979	0.515565	-0.159856	0.214655	-65.317299	2.229452	-30.975456
51196		-0.814026	0.515522	-0.159767	0.214648	-65.308095	2.223509	-30.968810
51197		-0.814101	0.515446	-0.159648	0.214634	-65.293523	2.216427	-30.959462
51198		-0.814194	0.515368	-0.159507	0.214574	-65.277879	2.210456	-30.944137
51199		-0.814311	0.515278	-0.159296	0.214499	-65.257887	2.199564	-30.922695
51200		-0.814443	0.515206	-0.159020	0.214379	-65.237692	2.184985	-30.892411
51201		-0.814574	0.515143	-0.158747	0.214232	-65.218770	2.172098	-30.859841
51202		-0.814680	0.515111	-0.158493	0.214096	-65.204577	2.159243	-30.829597
51203		-0.814781	0.515081	-0.158256	0.213960	-65.191473	2.147630	-30.800449
51204		-0.814886	0.515030	-0.158024	0.213851	-65.175777	2.135540	-30.774337
51205		-0.814996	0.514954	-0.157850	0.213744	-65.159057	2.129504	-30.752128
51206		-0.815126	0.514861	-0.157660	0.213613	-65.139376	2.124026	-30.726462
51207		-0.815236	0.514767	-0.157537	0.213511	-65.122281	2.122846	-30.708034
51208		-0.815337	0.514693	-0.157402	0.213404	-65.107311	2.120229	-30.688463
51209		-0.815467	0.514594	-0.157224	0.213275	-65.087480	2.115992	-30.663762
51210		-0.815602	0.514480	-0.157056	0.213162	-65.065957	2.112158	-30.641210
51211		-0.815716	0.514387	-0.156892	0.213069	-65.047515	2.106525	-30.621115
51212		-0.815813	0.514310	-0.156746	0.212991	-65.031810	2.101100	-30.603614
51213		-0.815929	0.514184	-0.156630	0.212935	-65.010893	2.098805	-30.590203
51214		-0.816064	0.514038	-0.156498	0.212869	-64.986598	2.096295	-30.574687
51215		-0.816175	0.513924	-0.156379	0.212805	-64.967172	2.093733	-30.560310
51216		-0.816308	0.513788	-0.156238	0.212727	-64.943876	2.090855	-30.543111
51217		-0.816442	0.513664	-0.156089	0.212623	-64.921939	2.088443	-30.522705
51218		-0.816521	0.513608	-0.155995	0.212523	-64.910956	2.088217	-30.506551
51219		-0.816557	0.513607	-0.155931	0.212435	-64.908285	2.088106	-30.493539
51220		-0.816588	0.513609	-0.155865	0.212357	-64.906003	2.087052	-30.481454
51221		-0.816668	0.513534	-0.155769	0.212302	-64.892478	2.084566	-30.469599
51222		-0.816739	0.513474	-0.155704	0.212220	-64.882114	2.085978	-30.457069
51223		-0.816769	0.513473	-0.155639	0.212157	-64.879364	2.084189	-30.446550
51224		-0.816796	0.513473	-0.155584	0.212091	-64.877312	2.083456	-30.436418
51225		-0.816827	0.513457	-0.155534	0.212048	-64.873299	2.082236	-30.428839
51226		-0.816868	0.513435	-0.155469	0.211992	-64.867879	2.080668	-30.418943
51227		-0.816900	0.513409	-0.155427	0.211961	-64.862856	2.079794	-30.413048
51228		-0.816925	0.513385	-0.155401	0.211945	-64.858618	2.079310	-30.409742
51229		-0.816947	0.513365	-0.155381	0.211921	-64.855220	2.079724	-30.406054
51230		-0.816993	0.513299	-0.155372	0.211911	-64.846340	2.081869	-30.404300
51231		-0.817031	0.513234	-0.155379	0.211916	-64.838120	2.084493	-30.405062
51232		-0.817039	0.513212	-0.155409	0.211917	-64.836281	2.087965	-30.407025
51233		-0.817044	0.513186	-0.155451	0.211931	-64.834609	2.091796	-30.411109
51234		-0.817032	0.513181	-0.155504	0.211948	-64.835955	2.095658	-30.416284
51235		-0.817000	0.513194	-0.155574	0.211990	-64.840278	2.098942	-30.425037
51236		-0.816968	0.513197	-0.155640	0.212056	-64.843334	2.100547	-30.435962
51237		-0.816931	0.513199	-0.155713	0.212143	-64.846432	2.101501	-30.449279
51238		-0.816874	0.513219	-0.155813	0.212238	-64.852904	2.103817	-30.465371
51239		-0.816801	0.513249	-0.155939	0.212355	-64.861758	2.106663	-30.485290
51240		-0.816725	0.513313	-0.156016	0.212437	-64.873126	2.106115	-30.498618
51241		-0.816660	0.513356	-0.156093	0.212528	-64.881709	2.105852	-30.512807
51242		-0.816604	0.513388	-0.156162	0.212613	-64.888632	2.105485	-30.525826
51243		-0.816550	0.513424	-0.156224	0.212689	-64.895755	2.104920	-30.537623
51244		-0.816464	0.513480	-0.156330	0.212804	-64.907324	2.105229	-30.556073
51245		-0.816383	0.513538	-0.156432	0.212900	-64.918761	2.106226	-30.572434
51246		-0.816313	0.513571	-0.156539	0.213011	-64.927278	2.107691	-30.590557
51247		-0.816276	0.513564	-0.156605	0.213120	-64.929017	2.106991	-30.605679
51248		-0.816213	0.513597	-0.156690	0.213221	-64.936654	2.107027	-30.621393
51249		-0.816126	0.513666	-0.156783	0.213318	-64.949420	2.106748	-30.637282
51250		-0.816037	0.513743	-0.156873	0.213409	-64.962988	2.106332	-30.652360
51251		-0.815943	0.513827	-0.156978	0.213486	-64.978029	2.107909	-30.667114
51252		-0.815866	0.513896	-0.157036	0.213573	-64.989323	2.105092	-30.679800
51253		-0.815820	0.513925	-0.157101	0.213630	-64.995769	2.106284	-30.689679
51254		-0.815753	0.513970	-0.157195	0.213710	-65.005214	2.108044	-30.703887
51255		-0.815691	0.514001	-0.157293	0.213800	-65.013110	2.110054	-30.719320
51256		-0.815635	0.514006	-0.157408	0.213915	-65.018316	2.112869	-30.738340
51257		-0.815568	0.514032	-0.157518	0.214031	-65.026020	2.114421	-30.757076
51258		-0.815516	0.514039	-0.157621	0.214134	-65.030995	2.116908	-30.774144
51259		-0.815457	0.514056	-0.157737	0.214232	-65.037790	2.120501	-30.791464
51260		-0.815382	0.514110	-0.157845	0.214309	-65.049116	2.123304	-30.806403
51261		-0.815327	0.514132	-0.157944	0.214390	-65.055935	2.126333	-30.820917
51262		-0.815267	0.514172	-0.158028	0.214461	-65.064403	2.127867	-30.833657
51263		-0.815225	0.514191	-0.158112	0.214515	-65.070170	2.131375	-30.844530
51264		-0.815180	0.514202	-0.158210	0.214585	-65.075497	2.135300	-30.857877
51265		-0.815145	0.514211	-0.158305	0.214627	-65.080371	2.140804	-30.868320
51266		-0.815112	0.514234	-0.158373	0.214650	-65.085915	2.144650	-30.875048
51267		-0.815073	0.514255	-0.158469	0.214676	-65.092456	2.150909	-30.883997
51268		-0.815016	0.514306	-0.158569	0.214694	-65.102998	2.156852	-30.892442
51269		-0.814969	0.514351	-0.158641	0.214713	-65.111686	2.160534	-30.899080
51270		-0.814925	0.514404	-0.158713	0.214702	-65.121281	2.165748	-30.902877
51271		-0.814877	0.514471	-0.158751	0.214691	-65.131577	2.167429	-30.904394
51272		-0.814818	0.514556	-0.158802	0.214676	-65.144568	2.170025	-30.906371
51273		-0.814765	0.514627	-0.158856	0.214666	-65.155983	2.172893	-30.909149
51274		-0.814702	0.514719	-0.158923	0.214637	-65.170532	2.177451	-30.910838
51275		-0.814642	0.514794	-0.158995	0.214632	-65.183085	2.181488	-30.915115
51276		-0.814578	0.514881	-0.159074	0.214604	-65.197540	2.187260	-30.917745
51277		-0.814495	0.514995	-0.159174	0.214573	-65.216273	2.194055	-30.921410
51278		-0.814437	0.515084	-0.159248	0.214527	-65.230660	2.200508	-30.921810
51279		-0.814370	0.515187	-0.159323	0.214475	-65.246940	2.206830	-30.921810
51280		-0.814308	0.515310	-0.159367	0.214385	-65.264587	2.212038	-30.915926
51281		-0.814258	0.515411	-0.159385	0.214316	-65.278480	2.214460	-30.910554
51282		-0.814194	0.515512	-0.159450	0.214269	-65.294190	2.219665	-30.910290
51283		-0.814128	0.515623	-0.159508	0.214211	-65.310818	2.224530	-30.908564
51284		-0.814066	0.515722	-0.159562	0.214166	-65.325877	2.228642	-30.907839
51285		-0.814002	0.515831	-0.159609	0.214112	-65.341805	2.232421	-30.905726
51286		-0.813954	0.515917	-0.159626	0.214074	-65.353679	2.233292	-30.903341
51287		-0.813891	0.516006	-0.159701	0.214042	-65.368292	2.238829	-30.905180
51288		-0.813841	0.516090	-0.159742	0.214003	-65.380723	2.242004	-30.904203
51289		-0.813790	0.516177	-0.159771	0.213963	-65.393162	2.243976	-30.902328
51290		-0.813715	0.516280	-0.159834	0.213952	-65.409098	2.246581	-30.905601
51291		-0.813647	0.516370	-0.159905	0.213941	-65.423655	2.250448	-30.909315
51292		-0.813618	0.516421	-0.159915	0.213921	-65.430669	2.250755	-30.908101
51293		-0.813598	0.516465	-0.159898	0.213903	-65.435802	2.248802	-30.905323
51294		-0.813559	0.516527	-0.159910	0.213894	-65.444371	2.248171	-30.905392
51295		-0.813524	0.516585	-0.159931	0.213871	-65.452709	2.249439	-30.904518
51296		-0.813495	0.516645	-0.159915	0.213848	-65.459909	2.247320	-30.901420
51297		-0.813449	0.516720	-0.159910	0.213844	-65.469538	2.244476	-30.900864
51298		-0.813400	0.516797	-0.159918	0.213839	-65.479918	2.242690	-30.900998
51299		-0.813358	0.516889	-0.159880	0.213808	-65.490428	2.237993	-30.895701
51300		-0.813315	0.516957	-0.159885	0.213802	-65.499577	2.236240	-30.895568
51301		-0.813261	0.517061	-0.159873	0.213767	-65.512626	2.233687	-30.891494
51302		-0.813205	0.517160	-0.159875	0.213735	-65.525658	2.232314	-30.888713
51303		-0.813140	0.517282	-0.159879	0.213686	-65.541732	2.231438	-30.884334
51304		-0.813072	0.517403	-0.159869	0.213660	-65.557157	2.227789	-30.881418
51305		-0.812988	0.517551	-0.159874	0.213614	-65.576757	2.225850	-30.877459
51306		-0.812893	0.517721	-0.159879	0.213560	-65.599177	2.223603	-30.872898
51307		-0.812791	0.517914	-0.159866	0.213493	-65.623799	2.219809	-30.865843
51308		-0.812660	0.518160	-0.159857	0.213398	-65.655631	2.216171	-30.856327
51309		-0.812530	0.518441	-0.159777	0.213272	-65.689267	2.206937	-30.839182
51310		-0.812373	0.518772	-0.159717	0.213110	-65.730145	2.200097	-30.819851
51311		-0.812191	0.519188	-0.159627	0.212858	-65.780972	2.193205	-30.789852
51312		-0.811958	0.519711	-0.159512	0.212558	-65.844835	2.183262	-30.753584
51313		-0.811672	0.520364	-0.159352	0.212169	-65.923978	2.170459	-30.705973
51314		-0.811378	0.521091	-0.159115	0.211689	-66.009830	2.154049	-30.644272
51315		-0.811076	0.521897	-0.158766	0.211121	-66.101720	2.130582	-30.566699
51316		-0.810736	0.522797	-0.158369	0.210497	-66.204326	2.103007	-30.480585
51317		-0.810324	0.523785	-0.158032	0.209881	-66.320935	2.077414	-30.399412
51318		-0.809914	0.524798	-0.157641	0.209226	-66.438825	2.048636	-30.310914
51319		-0.809526	0.525817	-0.157167	0.208527	-66.554544	2.015409	-30.212525
51320		-0.809074	0.526940	-0.156704	0.207790	-66.684548	1.981937	-30.111377
51321		-0.808522	0.528240	-0.156244	0.206984	-66.838303	1.947271	-30.003941
51322		-0.807933	0.529608	-0.155771	0.206144	-67.000779	1.911426	-29.892429
51323		-0.807338	0.530992	-0.155288	0.205278	-67.165247	1.876068	-29.777781
51324		-0.806710	0.532399	-0.154839	0.204440	-67.334455	1.841367	-29.668114
51325		-0.806043	0.533817	-0.154495	0.203630	-67.509260	1.814102	-29.568292
51326		-0.805292	0.535330	-0.154207	0.202845	-67.699276	1.787094	-29.474843
51327		-0.804521	0.536840	-0.153996	0.202074	-67.891975	1.766331	-29.387999
51328		-0.803758	0.538298	-0.153845	0.201345	-68.080205	1.750148	-29.309145
51329		-0.803061	0.539685	-0.153638	0.200571	-68.257203	1.734667	-29.222241
51330		-0.802373	0.541159	-0.153267	0.199633	-68.439922	1.712707	-29.108275
51331		-0.801658	0.542836	-0.152642	0.198427	-68.640754	1.679397	-28.951507
51332		-0.800959	0.544556	-0.151862	0.197135	-68.842025	1.637108	-28.775908
51333		-0.800213	0.546273	-0.151231	0.195891	-69.049006	1.605315	-28.615224
51334		-0.799378	0.548117	-0.150627	0.194612	-69.274507	1.574430	-28.453162
51335		-0.798486	0.550039	-0.150024	0.193313	-69.511043	1.542841	-28.289430
51336		-0.797591	0.551891	-0.149550	0.192093	-69.743431	1.520343	-28.142085
51337		-0.796667	0.553704	-0.149203	0.190975	-69.975696	1.503769	-28.013328
51338		-0.795757	0.555483	-0.148862	0.189865	-70.204051	1.488806	-27.885867
51339		-0.794848	0.557287	-0.148472	0.188690	-70.434394	1.473564	-27.748817
51340		-0.793858	0.559189	-0.148113	0.187507	-70.679806	1.458850	-27.613477
51341		-0.792724	0.561264	-0.147861	0.186302	-70.953022	1.449592	-27.483797
51342		-0.791539	0.563424	-0.147554	0.185059	-71.236491	1.435726	-27.347030
51343		-0.790329	0.565614	-0.147242	0.183795	-71.524587	1.422524	-27.208061
51344		-0.789067	0.567845	-0.146964	0.182558	-71.820085	1.409567	-27.074151
51345		-0.787746	0.570153	-0.146691	0.181286	-72.127097	1.397546	-26.937694
51346		-0.786447	0.572399	-0.146447	0.180038	-72.427429	1.388909	-26.805612
51347		-0.785172	0.574559	-0.146300	0.178839	-72.719821	1.388630	-26.685077
51348		-0.783984	0.576589	-0.146146	0.177639	-72.994769	1.392574	-26.563998
51349		-0.782854	0.578555	-0.145925	0.176408	-73.258960	1.395371	-26.435286
51350		-0.781740	0.580503	-0.145670	0.175155	-73.520258	1.397950	-26.302285
51351		-0.780672	0.582375	-0.145412	0.173914	-73.771251	1.402280	-26.170242
51352		-0.779671	0.584162	-0.145085	0.172681	-74.008605	1.403232	-26.034138
51353		-0.778821	0.585723	-0.144720	0.171529	-74.213643	1.403045	-25.902641
51354		-0.778118	0.587037	-0.144371	0.170518	-74.385152	1.402454	-25.785228
51355		-0.777525	0.588163	-0.144044	0.169621	-74.531291	1.401950	-25.679794
51356		-0.776984	0.589201	-0.143700	0.168786	-74.664952	1.398627	-25.578840
51357		-0.776350	0.590320	-0.143447	0.168007	-74.813112	1.396647	-25.489882
51358		-0.775658	0.591467	-0.143294	0.167295	-74.968879	1.397936	-25.414444
51359		-0.774936	0.592630	-0.143162	0.166638	-75.127803	1.396643	-25.345657
51360		-0.774267	0.593719	-0.142986	0.166023	-75.274957	1.391053	-25.277669
51361		-0.773626	0.594766	-0.142778	0.165442	-75.415372	1.381815	-25.210414
51362		-0.772958	0.595832	-0.142578	0.164902	-75.558950	1.369787	-25.147576
51363		-0.772299	0.596849	-0.142436	0.164432	-75.697785	1.359418	-25.095321
51364		-0.771703	0.597742	-0.142345	0.164061	-75.821006	1.350223	-25.055930
51365		-0.771194	0.598485	-0.142291	0.163796	-75.924190	1.341437	-25.028617
51366		-0.770709	0.599158	-0.142307	0.163602	-76.020018	1.335508	-25.012922
51367		-0.770278	0.599739	-0.142359	0.163457	-76.104134	1.332217	-25.004236
51368		-0.769911	0.600215	-0.142433	0.163375	-76.174024	1.329501	-25.002842
51369		-0.769637	0.600538	-0.142538	0.163388	-76.223351	1.327278	-25.012193
51370		-0.769432	0.600765	-0.142615	0.163453	-76.258152	1.322085	-25.024171
51371		-0.769256	0.600962	-0.142659	0.163518	-76.287593	1.314836	-25.033659
51372		-0.769099	0.601116	-0.142728	0.163632	-76.311803	1.307630	-25.049491
51373		-0.768965	0.601220	-0.142821	0.163798	-76.329715	1.300265	-25.071703
51374		-0.768799	0.601333	-0.142967	0.164036	-76.350691	1.291820	-25.104532
51375		-0.768643	0.601412	-0.143166	0.164301	-76.368695	1.287116	-25.143562
51376		-0.768574	0.601393	-0.143303	0.164578	-76.370571	1.279244	-25.179140
51377		-0.768581	0.601291	-0.143380	0.164847	-76.358823	1.269520	-25.209407
51378		-0.768615	0.601142	-0.143478	0.165147	-76.341048	1.260892	-25.244005
51379		-0.768674	0.600966	-0.143562	0.165438	-76.319030	1.252510	-25.276705
51380		-0.768804	0.600696	-0.143624	0.165761	-76.282810	1.243085	-25.310616
51381		-0.768924	0.600438	-0.143689	0.166084	-76.248473	1.233418	-25.344666
51382		-0.769039	0.600161	-0.143827	0.166432	-76.214048	1.228810	-25.386470
51383		-0.769118	0.599914	-0.144027	0.166780	-76.185896	1.228518	-25.432952
51384		-0.769207	0.599665	-0.144196	0.167126	-76.156277	1.225845	-25.476755
51385		-0.769347	0.599386	-0.144286	0.167399	-76.119919	1.222737	-25.508231
51386		-0.769507	0.599099	-0.144344	0.167645	-76.081300	1.219045	-25.534709
51387		-0.769664	0.598804	-0.144424	0.167907	-76.042274	1.216389	-25.564353
51388		-0.769806	0.598527	-0.144511	0.168168	-76.006142	1.213912	-25.594397
51389		-0.769948	0.598268	-0.144574	0.168386	-75.971620	1.211856	-25.618855
51390		-0.770129	0.597956	-0.144635	0.168617	-75.929594	1.210401	-25.644165
51391		-0.770302	0.597674	-0.144653	0.168806	-75.890463	1.207350	-25.662498
51392		-0.770473	0.597401	-0.144683	0.168970	-75.852910	1.206833	-25.679544
51393		-0.770610	0.597155	-0.144755	0.169151	-75.820706	1.207960	-25.701187
51394		-0.770723	0.596928	-0.144871	0.169337	-75.792495	1.211749	-25.726567
51395		-0.770846	0.596705	-0.144950	0.169496	-75.763707	1.214165	-25.746635
51396		-0.770966	0.596496	-0.144990	0.169654	-75.735615	1.212981	-25.763977
51397		-0.771113	0.596260	-0.145023	0.169786	-75.703520	1.213893	-25.778144
51398		-0.771235	0.596049	-0.145058	0.169940	-75.674948	1.212672	-25.794746
51399		-0.771373	0.595822	-0.145075	0.170097	-75.643496	1.210077	-25.810204
51400		-0.771489	0.595614	-0.145126	0.170253	-75.615993	1.209952	-25.828124
51401		-0.771594	0.595413	-0.145188	0.170433	-75.589718	1.208821	-25.848909
51402		-0.771694	0.595226	-0.145249	0.170580	-75.565491	1.209489	-25.866747
51403		-0.771777	0.595063	-0.145314	0.170715	-75.544818	1.210677	-25.883781
51404		-0.771871	0.594891	-0.145365	0.170847	-75.522320	1.211005	-25.899479
51405		-0.771967	0.594703	-0.145450	0.170995	-75.498793	1.213789	-25.919186
51406		-0.772073	0.594512	-0.145525	0.171118	-75.474458	1.217469	-25.935740
51407		-0.772171	0.594327	-0.145605	0.171249	-75.451107	1.220898	-25.953428
51408		-0.772270	0.594140	-0.145695	0.171374	-75.427845	1.225675	-25.971292
51409		-0.772350	0.594025	-0.145687	0.171418	-75.411435	1.225664	-25.974671
51410		-0.772448	0.593895	-0.145661	0.171451	-75.392178	1.225315	-25.975651
51411		-0.772551	0.593750	-0.145641	0.171507	-75.371182	1.224212	-25.979225
51412		-0.772641	0.593625	-0.145619	0.171556	-75.352749	1.222923	-25.981882
51413		-0.772749	0.593482	-0.145587	0.171589	-75.331647	1.222452	-25.982480
51414		-0.772878	0.593318	-0.145551	0.171608	-75.307191	1.223314	-25.981418
51415		-0.772997	0.593165	-0.145515	0.171626	-75.284580	1.223988	-25.980303
51416		-0.773124	0.593035	-0.145439	0.171571	-75.263666	1.225672	-25.969461
51417		-0.773246	0.592911	-0.145368	0.171507	-75.243741	1.228189	-25.958204
51418		-0.773371	0.592778	-0.145322	0.171443	-75.223412	1.233089	-25.948768
51419		-0.773465	0.592670	-0.145307	0.171406	-75.207679	1.237984	-25.944078
51420		-0.773548	0.592551	-0.145351	0.171403	-75.192521	1.245830	-25.946856
51421		-0.773659	0.592391	-0.145380	0.171433	-75.170947	1.251366	-25.951414
51422		-0.773778	0.592224	-0.145413	0.171445	-75.148611	1.258738	-25.954653
51423		-0.773885	0.592059	-0.145469	0.171481	-75.127356	1.266268	-25.961853
51424		-0.774003	0.591882	-0.145522	0.171516	-75.104239	1.274065	-25.968725
51425		-0.774145	0.591678	-0.145548	0.171559	-75.076383	1.279778	-25.974250
51426		-0.774281	0.591474	-0.145587	0.171614	-75.049121	1.285864	-25.981862
51427		-0.774399	0.591298	-0.145603	0.171676	-75.025010	1.288457	-25.988611
51428		-0.774513	0.591138	-0.145628	0.171691	-75.003283	1.294699	-25.991564
51429		-0.774654	0.590928	-0.145639	0.171771	-74.974242	1.296800	-25.999511
51430		-0.774834	0.590663	-0.145660	0.171850	-74.937725	1.301550	-26.007959
51431		-0.775055	0.590326	-0.145725	0.171956	-74.892723	1.310458	-26.021924
51432		-0.775247	0.590009	-0.145814	0.172104	-74.851305	1.317782	-26.041742
51433		-0.775422	0.589714	-0.145907	0.172251	-74.813133	1.324867	-26.061684
51434		-0.775622	0.589380	-0.145996	0.172417	-74.769380	1.331485	-26.083088
51435		-0.775800	0.589050	-0.146130	0.172631	-74.727815	1.338521	-26.112132
51436		-0.775959	0.588748	-0.146269	0.172825	-74.690420	1.346394	-26.139876
51437		-0.776149	0.588430	-0.146353	0.172983	-74.648786	1.352668	-26.160097
51438		-0.776312	0.588153	-0.146421	0.173139	-74.612352	1.356438	-26.179179
51439		-0.776431	0.587931	-0.146514	0.173279	-74.584508	1.361717	-26.198610
51440		-0.776518	0.587749	-0.146618	0.173418	-74.562658	1.366631	-26.218718
51441		-0.776607	0.587578	-0.146706	0.173525	-74.541729	1.372148	-26.234778
51442		-0.776699	0.587393	-0.146810	0.173653	-74.519529	1.378033	-26.253951
51443		-0.776788	0.587222	-0.146894	0.173760	-74.498564	1.383277	-26.269680
51444		-0.776876	0.587044	-0.146990	0.173891	-74.476973	1.388049	-26.288577
51445		-0.776921	0.586901	-0.147162	0.174024	-74.462991	1.397918	-26.313152
51446		-0.776958	0.586784	-0.147276	0.174157	-74.450625	1.402181	-26.333545
51447		-0.777072	0.586589	-0.147336	0.174254	-74.425485	1.406767	-26.346618
51448		-0.777153	0.586426	-0.147421	0.174370	-74.405627	1.411192	-26.363372
51449		-0.777176	0.586341	-0.147522	0.174465	-74.397320	1.415906	-26.379412
51450		-0.777207	0.586262	-0.147596	0.174533	-74.388849	1.419993	-26.390945
51451		-0.777260	0.586168	-0.147624	0.174586	-74.376747	1.421730	-26.397693
51452		-0.777330	0.586038	-0.147681	0.174664	-74.360612	1.425303	-26.408947
51453		-0.777372	0.585950	-0.147749	0.174714	-74.350706	1.430544	-26.418350
51454		-0.777427	0.585852	-0.147802	0.174754	-74.338768	1.435482	-26.425680
51455		-0.777479	0.585762	-0.147841	0.174792	-74.327658	1.439089	-26.431921
51456		-0.777533	0.585672	-0.147868	0.174829	-74.315982	1.441706	-26.437208
51457		-0.777630	0.585533	-0.147866	0.174864	-74.296568	1.443621	-26.440073
51458		-0.777727	0.585398	-0.147852	0.174899	-74.277138	1.444369	-26.442101
51459		-0.777818	0.585303	-0.147784	0.174868	-74.261532	1.443806	-26.434136
51460		-0.777925	0.585199	-0.147686	0.174823	-74.243613	1.441969	-26.422741
51461		-0.777972	0.585165	-0.147632	0.174774	-74.236923	1.442017	-26.414235
51462		-0.777984	0.585180	-0.147578	0.174713	-74.237239	1.441138	-26.404704
51463		-0.778068	0.585131	-0.147452	0.174614	-74.225877	1.438986	-26.386259
51464		-0.778154	0.585085	-0.147301	0.174511	-74.214281	1.434660	-26.365735
51465		-0.778221	0.585051	-0.147196	0.174414	-74.205828	1.433657	-26.349033
51466		-0.778277	0.585017	-0.147119	0.174345	-74.198388	1.433067	-26.337077
51467		-0.778337	0.584982	-0.147043	0.174260	-74.190777	1.433704	-26.323592
51468		-0.778419	0.584904	-0.146982	0.174206	-74.177833	1.434793	-26.313961
51469		-0.778515	0.584802	-0.146912	0.174176	-74.161160	1.434188	-26.306030
51470		-0.778593	0.584724	-0.146856	0.174141	-74.148305	1.434451	-26.298551
51471		-0.778679	0.584624	-0.146806	0.174131	-74.132671	1.434167	-26.293901
51472		-0.778762	0.584531	-0.146761	0.174110	-74.118081	1.434778	-26.288566
51473		-0.778850	0.584429	-0.146710	0.174101	-74.102093	1.434326	-26.283926
51474		-0.778926	0.584352	-0.146642	0.174079	-74.088980	1.432552	-26.276833
51475		-0.778964	0.584307	-0.146633	0.174066	-74.082432	1.434183	-26.274902
51476		-0.779010	0.584244	-0.146634	0.174069	-74.073734	1.436016	-26.275158
51477		-0.779067	0.584188	-0.146592	0.174041	-74.064386	1.436268	-26.269393
51478		-0.779141	0.584101	-0.146538	0.174048	-74.050365	1.433922	-26.266129
51479		-0.779227	0.583992	-0.146502	0.174058	-74.033974	1.433700	-26.264276
51480		-0.779262	0.583948	-0.146485	0.174064	-74.027228	1.433197	-26.263520
51481		-0.779286	0.583922	-0.146471	0.174055	-74.023125	1.433498	-26.261621
51482		-0.779324	0.583880	-0.146436	0.174056	-74.016035	1.431783	-26.259101
51483		-0.779363	0.583824	-0.146419	0.174081	-74.007730	1.430362	-26.260268
51484		-0.779400	0.583767	-0.146417	0.174107	-73.999728	1.430258	-26.262404
51485		-0.779443	0.583707	-0.146408	0.174124	-73.991017	1.430185	-26.263291
51486		-0.779504	0.583620	-0.146399	0.174151	-73.978637	1.430345	-26.265054
51487		-0.779555	0.583557	-0.146379	0.174149	-73.969207	1.430840	-26.263279
51488		-0.779604	0.583500	-0.146355	0.174139	-73.960421	1.431303	-26.260561
51489		-0.779631	0.583457	-0.146372	0.174153	-73.954976	1.433109	-26.262964
51490		-0.779649	0.583431	-0.146371	0.174158	-73.951261	1.433552	-26.263323
51491		-0.779674	0.583407	-0.146353	0.174142	-73.947318	1.433927	-26.260541
51492		-0.779715	0.583359	-0.146349	0.174124	-73.940479	1.436407	-26.258463
51493		-0.779785	0.583267	-0.146341	0.174127	-73.927382	1.438528	-26.257987
51494		-0.779848	0.583193	-0.146317	0.174109	-73.916296	1.440107	-26.254516
51495		-0.779943	0.583099	-0.146232	0.174072	-73.900219	1.438509	-26.244791
51496		-0.780003	0.583043	-0.146174	0.174040	-73.890394	1.437505	-26.237607
51497		-0.780033	0.583016	-0.146140	0.174025	-73.885435	1.436481	-26.233688
51498		-0.780051	0.583012	-0.146080	0.174003	-73.882896	1.432980	-26.227358
51499		-0.780074	0.583003	-0.146024	0.173976	-73.879749	1.430386	-26.220827
51500		-0.780079	0.583005	-0.145991	0.173979	-73.878857	1.427228	-26.218692
51501		-0.780079	0.582996	-0.145992	0.174009	-73.877664	1.425503	-26.221566
51502		-0.780086	0.582989	-0.145967	0.174023	-73.875775	1.422597	-26.221109
51503		-0.780104	0.582964	-0.145965	0.174025	-73.872168	1.423053	-26.221095
51504		-0.780115	0.582939	-0.145974	0.174053	-73.869017	1.422724	-26.224354
51505		-0.780117	0.582928	-0.145991	0.174068	-73.868058	1.423439	-26.226939
51506		-0.780118	0.582909	-0.146021	0.174102	-73.866464	1.424268	-26.232242
51507		-0.780120	0.582899	-0.146033	0.174116	-73.865523	1.424604	-26.234371
51508		-0.780125	0.582877	-0.146064	0.174139	-73.863581	1.426396	-26.238734
51509		-0.780120	0.582856	-0.146125	0.174180	-73.862811	1.429443	-26.246934
51510		-0.780106	0.582831	-0.146208	0.174256	-73.862210	1.432075	-26.259875
51511		-0.780096	0.582805	-0.146284	0.174325	-73.861130	1.434676	-26.271786
51512		-0.780064	0.582818	-0.146349	0.174371	-73.865213	1.436544	-26.280719
51513		-0.780052	0.582806	-0.146406	0.174418	-73.865474	1.438554	-26.289130
51514		-0.780025	0.582808	-0.146468	0.174477	-73.867954	1.439612	-26.299190
51515		-0.780000	0.582819	-0.146507	0.174524	-73.870817	1.439408	-26.306380
51516		-0.779977	0.582815	-0.146577	0.174581	-73.872689	1.441577	-26.316714
51517		-0.779944	0.582818	-0.146646	0.174658	-73.875640	1.441932	-26.328920
51518		-0.779930	0.582805	-0.146703	0.174717	-73.875692	1.443094	-26.338422
51519		-0.779931	0.582760	-0.146753	0.174821	-73.871240	1.441516	-26.351699
51520		-0.779946	0.582702	-0.146807	0.174903	-73.865048	1.442285	-26.363165
51521		-0.779933	0.582678	-0.146876	0.174980	-73.864106	1.443591	-26.375372
51522		-0.779926	0.582649	-0.146943	0.175054	-73.862422	1.445104	-26.387021
51523		-0.779928	0.582607	-0.147013	0.175124	-73.859114	1.447536	-26.398532
51524		-0.779918	0.582591	-0.147064	0.175179	-73.858689	1.448647	-26.407289
51525		-0.779890	0.582605	-0.147087	0.175235	-73.861447	1.446217	-26.414215
51526		-0.779872	0.582606	-0.147139	0.175272	-73.863363	1.448033	-26.421382
51527		-0.779859	0.582585	-0.147213	0.175337	-73.862975	1.450522	-26.432764
51528		-0.779871	0.582540	-0.147252	0.175400	-73.858041	1.450889	-26.441342
51529		-0.779843	0.582560	-0.147287	0.175430	-73.862158	1.451183	-26.446734
51530		-0.779805	0.582584	-0.147354	0.175462	-73.867846	1.453839	-26.454550
51531		-0.779811	0.582553	-0.147389	0.175506	-73.864765	1.454828	-26.461109
51532		-0.779847	0.582502	-0.147362	0.175543	-73.856625	1.451539	-26.462615
51533		-0.779868	0.582450	-0.147396	0.175590	-73.850681	1.452849	-26.469324
51534		-0.779873	0.582406	-0.147451	0.175669	-73.846438	1.453454	-26.480609
51535		-0.779893	0.582350	-0.147489	0.175732	-73.840015	1.454097	-26.489119
51536		-0.779898	0.582306	-0.147544	0.175811	-73.835771	1.454702	-26.500405
51537		-0.779916	0.582228	-0.147636	0.175914	-73.828161	1.457956	-26.516624
51538		-0.779952	0.582133	-0.147720	0.175998	-73.817937	1.462371	-26.530316
51539		-0.779993	0.582033	-0.147801	0.176078	-73.806835	1.466975	-26.543468
51540		-0.780008	0.581970	-0.147868	0.176162	-73.800511	1.468898	-26.555961
51541		-0.780002	0.581946	-0.147930	0.176219	-73.799305	1.471063	-26.565715
51542		-0.780009	0.581915	-0.147970	0.176253	-73.796368	1.473098	-26.571766
51543		-0.779994	0.581895	-0.148055	0.176316	-73.796595	1.476636	-26.583627
51544		-0.779983	0.581852	-0.148172	0.176405	-73.794741	1.481806	-26.600305
51545		-0.780002	0.581784	-0.148246	0.176482	-73.787913	1.484995	-26.612780
51546		-0.780035	0.581699	-0.148321	0.176555	-73.778689	1.489159	-26.624795
51547		-0.780069	0.581611	-0.148412	0.176620	-73.769600	1.495284	-26.637252
51548		-0.780081	0.581569	-0.148473	0.176653	-73.765932	1.499592	-26.644596
51549		-0.780085	0.581543	-0.148535	0.176670	-73.764473	1.504582	-26.650634
51550		-0.780069	0.581530	-0.148637	0.176698	-73.766275	1.511883	-26.660483
51551		-0.780061	0.581514	-0.148714	0.176725	-73.766646	1.517137	-26.668479
51552		-0.780027	0.581531	-0.148794	0.176747	-73.771869	1.521897	-26.676384
51553		-0.780005	0.581521	-0.148884	0.176801	-73.773682	1.526177	-26.687832
51554		-0.779992	0.581499	-0.148966	0.176862	-73.773479	1.529631	-26.699388
51555		-0.779983	0.581477	-0.149031	0.176920	-73.772730	1.531869	-26.709456
51556		-0.779981	0.581448	-0.149098	0.176969	-73.771098	1.535189	-26.718770
51557		-0.779995	0.581398	-0.149152	0.177021	-73.766072	1.537769	-26.727455
51558		-0.779995	0.581357	-0.149229	0.177096	-73.763049	1.540474	-26.739857
51559		-0.779976	0.581360	-0.149282	0.177123	-73.765347	1.543076	-26.746215
51560		-0.779999	0.581304	-0.149319	0.177174	-73.758853	1.544463	-26.753577
51561		-0.780019	0.581246	-0.149372	0.177232	-73.752722	1.546831	-26.762708
51562		-0.780020	0.581219	-0.149427	0.177269	-73.750875	1.549958	-26.770064
51563		-0.780051	0.581160	-0.149454	0.177305	-73.743613	1.551621	-26.775293
51564		-0.780087	0.581104	-0.149439	0.177344	-73.735331	1.549505	-26.777818
51565		-0.780126	0.581036	-0.149448	0.177385	-73.726207	1.549620	-26.782188
51566		-0.780154	0.580977	-0.149486	0.177426	-73.719370	1.551974	-26.788612
51567		-0.780189	0.580920	-0.149502	0.177445	-73.711964	1.553922	-26.791463
51568		-0.780220	0.580866	-0.149516	0.177472	-73.705037	1.554927	-26.794905
51569		-0.780260	0.580809	-0.149515	0.177484	-73.697068	1.555906	-26.795864
51570		-0.780293	0.580747	-0.149531	0.177530	-73.689009	1.556149	-26.801180
51571		-0.780317	0.580688	-0.149558	0.177596	-73.681765	1.555727	-26.809233
51572		-0.780351	0.580609	-0.149596	0.177669	-73.672185	1.556513	-26.818656
51573		-0.780383	0.580532	-0.149638	0.177745	-73.663045	1.557339	-26.828669
51574		-0.780447	0.580427	-0.149634	0.177808	-73.648384	1.556005	-26.834180
51575		-0.780488	0.580346	-0.149658	0.177875	-73.637999	1.556005	-26.842023
51576		-0.780519	0.580273	-0.149694	0.177944	-73.629155	1.556688	-26.850983
51577		-0.780548	0.580202	-0.149728	0.178023	-73.620529	1.556414	-26.860636
51578		-0.780595	0.580116	-0.149735	0.178092	-73.608770	1.555004	-26.867460
51579		-0.780653	0.580025	-0.149732	0.178137	-73.596044	1.554596	-26.871381
51580		-0.780686	0.579951	-0.149745	0.178222	-73.586315	1.552201	-26.880177
51581		-0.780702	0.579889	-0.149784	0.178318	-73.579188	1.550850	-26.891878
51582		-0.780766	0.579777	-0.149794	0.178397	-73.564000	1.549810	-26.899824
51583		-0.780797	0.579694	-0.149837	0.178496	-73.553996	1.549432	-26.912078
51584		-0.780822	0.579624	-0.149860	0.178589	-73.545217	1.547123	-26.922373
51585		-0.780852	0.579556	-0.149877	0.178666	-73.536325	1.545415	-26.930676
51586		-0.780873	0.579501	-0.149895	0.178738	-73.529417	1.543764	-26.938632
51587		-0.780885	0.579454	-0.149909	0.178827	-73.523445	1.540304	-26.947940
51588		-0.780906	0.579395	-0.149940	0.178899	-73.516411	1.539812	-26.956917
51589		-0.780920	0.579346	-0.149962	0.178980	-73.510377	1.537581	-26.965971
51590		-0.780929	0.579286	-0.150020	0.179082	-73.504249	1.537512	-26.979621
51591		-0.780969	0.579208	-0.150026	0.179157	-73.493626	1.535337	-26.986957
51592		-0.780985	0.579141	-0.150082	0.179258	-73.486282	1.535328	-27.000327
51593		-0.780987	0.579084	-0.150154	0.179372	-73.480998	1.535293	-27.016140
51594		-0.780995	0.579033	-0.150210	0.179456	-73.476004	1.535983	-27.027917
51595		-0.781018	0.578982	-0.150226	0.179506	-73.469499	1.535557	-27.033691
51596		-0.781033	0.578931	-0.150266	0.179573	-73.463813	1.536014	-27.042759
51597		-0.781061	0.578874	-0.150286	0.179619	-73.456662	1.536389	-27.048497
51598		-0.781078	0.578833	-0.150283	0.179678	-73.450871	1.533329	-27.053759
51599		-0.781086	0.578808	-0.150291	0.179718	-73.447805	1.532030	-27.058005
51600		-0.781084	0.578791	-0.150303	0.179772	-73.445793	1.529797	-27.063916
51601		-0.781076	0.578785	-0.150314	0.179813	-73.445505	1.528153	-27.068572
51602		-0.781075	0.578768	-0.150326	0.179867	-73.443492	1.525920	-27.074483
51603		-0.781083	0.578727	-0.150363	0.179931	-73.439124	1.525955	-27.083066
51604		-0.781066	0.578711	-0.150436	0.179996	-73.439520	1.528271	-27.094367
51605		-0.781065	0.578685	-0.150478	0.180047	-73.437514	1.529141	-27.102189
51606		-0.781059	0.578678	-0.150498	0.180081	-73.437252	1.528721	-27.106778
51607		-0.781055	0.578656	-0.150533	0.180140	-73.435431	1.528358	-27.114730
51608		-0.781042	0.578653	-0.150569	0.180175	-73.436259	1.529033	-27.120620
51609		-0.781029	0.578660	-0.150581	0.180199	-73.437693	1.528199	-27.123806
51610		-0.781008	0.578677	-0.150605	0.180216	-73.440998	1.528415	-27.127082
51611		-0.780982	0.578695	-0.150637	0.180244	-73.444515	1.528628	-27.132054
51612		-0.780968	0.578700	-0.150670	0.180262	-73.446482	1.530063	-27.136069
51613		-0.780953	0.578710	-0.150704	0.180265	-73.449029	1.532450	-27.138837
51614		-0.780941	0.578710	-0.150733	0.180293	-73.450119	1.532976	-27.143513
51615		-0.780930	0.578704	-0.150782	0.180318	-73.450999	1.535659	-27.149340
51616		-0.780913	0.578723	-0.150794	0.180323	-73.454089	1.535685	-27.150653
51617		-0.780893	0.578752	-0.150796	0.180316	-73.458135	1.535451	-27.150241
51618		-0.780860	0.578788	-0.150831	0.180313	-73.464407	1.537415	-27.152476
51619		-0.780830	0.578834	-0.150837	0.180287	-73.470918	1.538178	-27.150598
51620		-0.780804	0.578850	-0.150901	0.180294	-73.475468	1.542662	-27.155809
51621		-0.780798	0.578846	-0.150947	0.180299	-73.476505	1.546458	-27.159516
51622		-0.780766	0.578858	-0.151017	0.180339	-73.480729	1.549249	-27.168294
51623		-0.780729	0.578869	-0.151116	0.180381	-73.485748	1.554470	-27.179358
51624		-0.780703	0.578866	-0.151202	0.180429	-73.488374	1.558622	-27.190092
51625		-0.780690	0.578860	-0.151251	0.180464	-73.489368	1.560536	-27.196850
51626		-0.780655	0.578879	-0.151319	0.180501	-73.494331	1.563217	-27.205164
51627		-0.780601	0.578915	-0.151409	0.180542	-73.502593	1.566860	-27.215512
51628		-0.780552	0.578945	-0.151489	0.180587	-73.509723	1.569553	-27.225606
51629		-0.780521	0.578957	-0.151559	0.180627	-73.513820	1.572330	-27.234364
51630		-0.780494	0.578966	-0.151607	0.180672	-73.516814	1.573008	-27.242036
51631		-0.780488	0.578959	-0.151649	0.180689	-73.517280	1.575665	-27.246627
51632		-0.780482	0.578928	-0.151733	0.180744	-73.516005	1.580145	-27.257735
51633		-0.780490	0.578870	-0.151817	0.180819	-73.511096	1.583948	-27.270680
51634		-0.780476	0.578872	-0.151863	0.180838	-73.512943	1.586527	-27.275720
51635		-0.780465	0.578889	-0.151892	0.180806	-73.516389	1.590670	-27.274874
51636		-0.780458	0.578882	-0.151941	0.180818	-73.517162	1.594324	-27.279440
51637		-0.780441	0.578876	-0.152017	0.180844	-73.519047	1.599250	-27.287360
51638		-0.780432	0.578874	-0.152071	0.180845	-73.520699	1.603810	-27.291267
51639		-0.780455	0.578826	-0.152120	0.180858	-73.515795	1.608798	-27.295972
51640		-0.780474	0.578779	-0.152177	0.180876	-73.511330	1.614009	-27.301647
51641		-0.780500	0.578739	-0.152205	0.180873	-73.506736	1.617924	-27.303232
51642		-0.780551	0.578665	-0.152238	0.180862	-73.497604	1.624083	-27.304404
51643		-0.780611	0.578590	-0.152250	0.180828	-73.487721	1.630053	-27.301927
51644		-0.780646	0.578550	-0.152255	0.180804	-73.482257	1.633522	-27.299937
51645		-0.780672	0.578522	-0.152265	0.180771	-73.478793	1.637658	-27.297494
51646		-0.780691	0.578507	-0.152267	0.180737	-73.476756	1.640748	-27.294386
51647		-0.780700	0.578501	-0.152280	0.180707	-73.476316	1.644106	-27.292423
51648		-0.780713	0.578470	-0.152320	0.180716	-73.473447	1.647951	-27.296142
51649		-0.780744	0.578425	-0.152349	0.180701	-73.468187	1.653052	-27.296688
51650		-0.780774	0.578380	-0.152366	0.180704	-73.462535	1.655834	-27.298069
51651		-0.780803	0.578353	-0.152349	0.180679	-73.458223	1.657105	-27.294475
51652		-0.780803	0.578337	-0.152402	0.180683	-73.457924	1.661829	-27.298566
51653		-0.780799	0.578330	-0.152436	0.180694	-73.458121	1.664255	-27.302141
51654		-0.780809	0.578308	-0.152462	0.180699	-73.456111	1.666841	-27.304371
51655		-0.780819	0.578281	-0.152503	0.180710	-73.453759	1.670560	-27.308211
51656		-0.780804	0.578275	-0.152568	0.180737	-73.455225	1.674428	-27.315493
51657		-0.780806	0.578242	-0.152630	0.180782	-73.452941	1.677668	-27.324073
51658		-0.780811	0.578212	-0.152680	0.180815	-73.450623	1.680720	-27.330700
51659		-0.780811	0.578175	-0.152730	0.180890	-73.447278	1.680973	-27.341280
51660		-0.780815	0.578154	-0.152749	0.180927	-73.445060	1.680708	-27.346054
51661		-0.780828	0.578121	-0.152755	0.180969	-73.440789	1.679451	-27.350344
51662		-0.780840	0.578087	-0.152761	0.181022	-73.436335	1.677334	-27.355688
51663		-0.780834	0.578079	-0.152771	0.181062	-73.435600	1.675625	-27.360141
51664		-0.780806	0.578094	-0.152794	0.181119	-73.438431	1.673111	-27.367184
51665		-0.780798	0.578085	-0.152798	0.181178	-73.437470	1.669627	-27.373026
51666		-0.780816	0.578055	-0.152774	0.181213	-73.432445	1.666138	-27.374633
51667		-0.780799	0.578083	-0.152743	0.181222	-73.435286	1.661879	-27.373305
51668		-0.780807	0.578056	-0.152741	0.181278	-73.431427	1.658646	-27.378377
51669		-0.780843	0.578023	-0.152671	0.181290	-73.424362	1.652920	-27.374419
51670		-0.780849	0.578020	-0.152633	0.181303	-73.422549	1.648869	-27.372946
51671		-0.780854	0.578016	-0.152582	0.181339	-73.420261	1.642043	-27.372765
51672		-0.780835	0.578032	-0.152565	0.181381	-73.421901	1.637106	-27.375514
51673		-0.780818	0.578042	-0.152563	0.181426	-73.423252	1.633313	-27.379608
51674		-0.780823	0.578036	-0.152525	0.181454	-73.421035	1.628394	-27.379545
51675		-0.780831	0.578034	-0.152471	0.181474	-73.418843	1.622363	-27.377502
51676		-0.780797	0.578071	-0.152434	0.181529	-73.422746	1.614117	-27.380180
51677		-0.780771	0.578094	-0.152428	0.181579	-73.425649	1.609329	-27.384505
51678		-0.780748	0.578124	-0.152378	0.181621	-73.428123	1.600969	-27.384935
51679		-0.780734	0.578139	-0.152331	0.181673	-73.428507	1.592738	-27.386521
51680		-0.780734	0.578140	-0.152267	0.181724	-73.426459	1.583671	-27.386763
51681		-0.780712	0.578154	-0.152245	0.181790	-73.427667	1.576643	-27.391464
51682		-0.780689	0.578174	-0.152221	0.181849	-73.429494	1.569719	-27.395349
51683		-0.780678	0.578180	-0.152174	0.181916	-73.428736	1.560745	-27.398298
51684		-0.780658	0.578193	-0.152157	0.181972	-73.429967	1.554936	-27.402457
51685		-0.780663	0.578191	-0.152093	0.182010	-73.427401	1.546862	-27.401483
51686		-0.780686	0.578159	-0.152030	0.182070	-73.420707	1.538240	-27.402565
51687		-0.780704	0.578130	-0.151977	0.182125	-73.414950	1.530754	-27.403956
51688		-0.780707	0.578122	-0.151928	0.182181	-73.412039	1.522942	-27.405692
51689		-0.780701	0.578123	-0.151885	0.182239	-73.410726	1.515113	-27.408087
51690		-0.780697	0.578118	-0.151852	0.182296	-73.408908	1.508387	-27.411129
51691		-0.780691	0.578103	-0.151840	0.182381	-73.406363	1.501882	-27.418246
51692		-0.780665	0.578124	-0.151820	0.182445	-73.408659	1.494990	-27.422883
51693		-0.780678	0.578094	-0.151772	0.182522	-73.402801	1.486386	-27.426704
51694		-0.780675	0.578097	-0.151719	0.182570	-73.401366	1.478363	-27.427509
51695		-0.780678	0.578081	-0.151686	0.182632	-73.398042	1.471694	-27.430959
51696		-0.780659	0.578091	-0.151676	0.182696	-73.399002	1.466021	-27.436338
51697		-0.780650	0.578078	-0.151673	0.182776	-73.397221	1.460563	-27.443586
51698		-0.780653	0.578058	-0.151656	0.182842	-73.393799	1.455196	-27.448591
51699		-0.780651	0.578040	-0.151644	0.182914	-73.391022	1.449662	-27.454527
51700		-0.780644	0.578030	-0.151635	0.182985	-73.389288	1.444264	-27.460562
51701		-0.780662	0.577996	-0.151605	0.183041	-73.383493	1.438909	-27.463599
51702		-0.780684	0.577948	-0.151580	0.183119	-73.376020	1.432874	-27.469173
51703		-0.780699	0.577902	-0.151573	0.183202	-73.369515	1.427910	-27.476413
51704		-0.780716	0.577866	-0.151550	0.183267	-73.363663	1.422677	-27.480861
51705		-0.780735	0.577824	-0.151542	0.183321	-73.357677	1.419650	-27.485305
51706		-0.780740	0.577810	-0.151519	0.183364	-73.354925	1.415009	-27.487688
51707		-0.780739	0.577799	-0.151495	0.183424	-73.352502	1.409189	-27.491690
51708		-0.780729	0.577802	-0.151494	0.183460	-73.352940	1.406473	-27.494996
51709		-0.780722	0.577805	-0.151490	0.183480	-73.353313	1.404557	-27.496661
51710		-0.780707	0.577819	-0.151469	0.183518	-73.354465	1.399571	-27.498669
51711		-0.780725	0.577788	-0.151448	0.183559	-73.349422	1.396037	-27.501036
51712		-0.780724	0.577773	-0.151459	0.183599	-73.347786	1.394646	-27.505554
51713		-0.780729	0.577752	-0.151467	0.183636	-73.345219	1.393409	-27.509584
51714		-0.780738	0.577728	-0.151464	0.183678	-73.341750	1.391037	-27.513267
51715		-0.780736	0.577716	-0.151473	0.183713	-73.340454	1.389739	-27.517252
51716		-0.780752	0.577692	-0.151448	0.183745	-73.336157	1.386140	-27.518414
51717		-0.780750	0.577678	-0.151452	0.183794	-73.334422	1.383550	-27.523290
51718		-0.780743	0.577679	-0.151446	0.183825	-73.334384	1.380795	-27.525849
51719		-0.780732	0.577687	-0.151445	0.183850	-73.335442	1.378733	-27.528142
51720		-0.780739	0.577679	-0.151420	0.183864	-73.333508	1.375832	-27.527707
51721		-0.780746	0.577664	-0.151413	0.183887	-73.331192	1.374054	-27.529338
51722		-0.780744	0.577666	-0.151408	0.183893	-73.331235	1.373145	-27.529545
51723		-0.780734	0.577672	-0.151413	0.183911	-73.332314	1.372108	-27.531621
51724		-0.780719	0.577686	-0.151420	0.183926	-73.334518	1.371203	-27.533605
51725		-0.780693	0.577703	-0.151446	0.183961	-73.337800	1.370395	-27.538668
51726		-0.780695	0.577699	-0.151442	0.183970	-73.337104	1.369590	-27.539343
51727		-0.780688	0.577711	-0.151440	0.183962	-73.338681	1.369485	-27.538415
51728		-0.780663	0.577743	-0.151441	0.183967	-73.343104	1.368265	-27.538994
51729		-0.780659	0.577741	-0.151454	0.183980	-73.343300	1.368545	-27.541158
51730		-0.780660	0.577733	-0.151452	0.184004	-73.342192	1.366868	-27.543244
51731		-0.780674	0.577717	-0.151431	0.184012	-73.339172	1.365033	-27.542503
51732		-0.780667	0.577721	-0.151454	0.184007	-73.340600	1.367231	-27.543628
51733		-0.780660	0.577737	-0.151449	0.183994	-73.342580	1.367217	-27.542154
51734		-0.780657	0.577743	-0.151455	0.183983	-73.343655	1.368226	-27.541506
51735		-0.780646	0.577760	-0.151469	0.183964	-73.346516	1.370247	-27.540793
51736		-0.780629	0.577779	-0.151487	0.183963	-73.349751	1.371259	-27.541923
51737		-0.780624	0.577776	-0.151509	0.183974	-73.350185	1.372513	-27.544537
51738		-0.780616	0.577777	-0.151533	0.183983	-73.351201	1.373838	-27.547073
51739		-0.780599	0.577795	-0.151561	0.183976	-73.354684	1.376096	-27.548474
51740		-0.780597	0.577785	-0.151588	0.183993	-73.354220	1.377629	-27.551947
51741		-0.780583	0.577791	-0.151617	0.184011	-73.356111	1.378593	-27.555714
51742		-0.780603	0.577748	-0.151637	0.184044	-73.350856	1.379566	-27.560225
51743		-0.780611	0.577723	-0.151671	0.184060	-73.348653	1.382086	-27.564108
51744		-0.780604	0.577748	-0.151671	0.184013	-73.352031	1.384630	-27.559704
51745		-0.780584	0.577777	-0.151686	0.183995	-73.356575	1.386209	-27.559187
51746		-0.780571	0.577789	-0.151712	0.183991	-73.359216	1.388335	-27.560594
51747		-0.780581	0.577762	-0.151743	0.184007	-73.356597	1.390792	-27.564307
51748		-0.780614	0.577727	-0.151723	0.183995	-73.350985	1.391100	-27.561700
51749		-0.780632	0.577702	-0.151735	0.183986	-73.347926	1.393636	-27.561640
51750		-0.780655	0.577680	-0.151716	0.183971	-73.344267	1.393769	-27.558846
51751		-0.780672	0.577659	-0.151725	0.183961	-73.341624	1.395952	-27.558519
51752		-0.780706	0.577626	-0.151711	0.183928	-73.336570	1.398142	-27.554310
51753		-0.780734	0.577600	-0.151702	0.183900	-73.332610	1.400235	-27.550975
51754		-0.780753	0.577597	-0.151678	0.183848	-73.331254	1.401903	-27.544424
51755		-0.780766	0.577595	-0.151664	0.183812	-73.330524	1.403361	-27.540046
51756		-0.780757	0.577636	-0.151643	0.183737	-73.335439	1.405381	-27.531524
51757		-0.780744	0.577675	-0.151628	0.183683	-73.340254	1.406566	-27.525338
51758		-0.780737	0.577700	-0.151628	0.183635	-73.343630	1.409109	-27.520936
51759		-0.780727	0.577727	-0.151638	0.183586	-73.347720	1.412525	-27.517032
51760		-0.780699	0.577776	-0.151641	0.183547	-73.354591	1.413850	-27.513666
51761		-0.780679	0.577819	-0.151635	0.183501	-73.360333	1.415105	-27.508977
51762		-0.780658	0.577868	-0.151616	0.183453	-73.366376	1.415210	-27.503088
51763		-0.780632	0.577932	-0.151576	0.183390	-73.373899	1.413990	-27.494469
51764		-0.780597	0.578001	-0.151579	0.183319	-73.383546	1.416889	-27.488098
51765		-0.780583	0.578038	-0.151563	0.183277	-73.388019	1.417207	-27.482985
51766		-0.780550	0.578095	-0.151575	0.183232	-73.396248	1.419477	-27.479710
51767		-0.780513	0.578161	-0.151555	0.183194	-73.404776	1.418239	-27.474787
51768		-0.780479	0.578226	-0.151542	0.183146	-73.413245	1.418210	-27.469460
51769		-0.780430	0.578289	-0.151560	0.183137	-73.422684	1.418332	-27.470003
51770		-0.780388	0.578351	-0.151570	0.183114	-73.431568	1.418649	-27.468610
51771		-0.780372	0.578387	-0.151551	0.183085	-73.435877	1.417928	-27.464616
51772		-0.780327	0.578458	-0.151552	0.183051	-73.445767	1.418003	-27.461538
51773		-0.780276	0.578528	-0.151567	0.183035	-73.455994	1.418042	-27.461200
51774		-0.780207	0.578631	-0.151562	0.183012	-73.469972	1.415783	-27.458880
51775		-0.780189	0.578675	-0.151529	0.182974	-73.474915	1.414007	-27.453001
51776		-0.780141	0.578764	-0.151501	0.182919	-73.486198	1.412555	-27.445994
51777		-0.780111	0.578830	-0.151472	0.182865	-73.494285	1.411602	-27.438922
51778		-0.780077	0.578894	-0.151429	0.182840	-73.501698	1.407496	-27.433609
51779		-0.780021	0.578993	-0.151400	0.182792	-73.514274	1.405039	-27.427105
51780		-0.779981	0.579065	-0.151366	0.182761	-73.523046	1.401877	-27.421881
51781		-0.779943	0.579136	-0.151353	0.182709	-73.532389	1.401990	-27.416238
51782		-0.779890	0.579224	-0.151354	0.182657	-73.544643	1.402771	-27.411566
51783		-0.779850	0.579290	-0.151358	0.182615	-73.553949	1.403826	-27.407922
51784		-0.779795	0.579371	-0.151372	0.182579	-73.565670	1.404881	-27.405685
51785		-0.779728	0.579469	-0.151383	0.182546	-73.579572	1.404810	-27.403597
51786		-0.779688	0.579544	-0.151372	0.182485	-73.589665	1.405595	-27.397146
51787		-0.779661	0.579607	-0.151354	0.182419	-73.597700	1.406599	-27.389668
51788		-0.779590	0.579718	-0.151353	0.182371	-73.612973	1.406126	-27.385282
51789		-0.779523	0.579826	-0.151347	0.182319	-73.627700	1.405622	-27.380119
51790		-0.779468	0.579930	-0.151297	0.182262	-73.640437	1.401814	-27.371336
51791		-0.779398	0.580062	-0.151257	0.182179	-73.657197	1.399724	-27.360900
51792		-0.779325	0.580189	-0.151234	0.182104	-73.674009	1.398743	-27.352395
51793		-0.779243	0.580322	-0.151221	0.182041	-73.691939	1.397635	-27.345724
51794		-0.779156	0.580458	-0.151217	0.181983	-73.710643	1.396787	-27.340218
51795		-0.779090	0.580570	-0.151217	0.181908	-73.726279	1.398243	-27.333328
51796		-0.779026	0.580676	-0.151206	0.181852	-73.740604	1.397711	-27.327445
51797		-0.778967	0.580769	-0.151232	0.181787	-73.754394	1.401434	-27.323339
51798		-0.778895	0.580888	-0.151235	0.181715	-73.770961	1.402753	-27.316896
51799		-0.778852	0.580973	-0.151228	0.181629	-73.782502	1.405407	-27.308502
51800		-0.778804	0.581062	-0.151230	0.181551	-73.794835	1.408055	-27.301495
51801		-0.778753	0.581162	-0.151229	0.181452	-73.808680	1.411556	-27.292148
51802		-0.778694	0.581269	-0.151219	0.181370	-73.823086	1.412886	-27.283928
51803		-0.778654	0.581348	-0.151223	0.181285	-73.834202	1.416623	-27.276390
51804		-0.778599	0.581444	-0.151228	0.181208	-73.847745	1.419204	-27.269669
51805		-0.778550	0.581527	-0.151268	0.181120	-73.860685	1.426052	-27.264330
51806		-0.778533	0.581584	-0.151259	0.181014	-73.868245	1.430849	-27.253861
51807		-0.778498	0.581666	-0.151278	0.180889	-73.880243	1.438530	-27.243553
51808		-0.778456	0.581742	-0.151325	0.180783	-73.892430	1.447492	-27.237124
51809		-0.778421	0.581823	-0.151350	0.180656	-73.904405	1.455926	-27.227098
51810		-0.778397	0.581888	-0.151373	0.180529	-73.914222	1.464733	-27.216924
51811		-0.778382	0.581940	-0.151404	0.180400	-73.922538	1.474772	-27.207075
51812		-0.778366	0.581996	-0.151437	0.180259	-73.931427	1.485674	-27.196252
51813		-0.778328	0.582068	-0.151503	0.180135	-73.943753	1.497674	-27.189548
51814		-0.778320	0.582089	-0.151575	0.180045	-73.949092	1.509548	-27.186214
51815		-0.778308	0.582115	-0.151651	0.179944	-73.955407	1.522310	-27.182231
51816		-0.778292	0.582144	-0.151749	0.179839	-73.962861	1.537178	-27.179381
51817		-0.778290	0.582143	-0.151866	0.179753	-73.966865	1.553344	-27.179714
51818		-0.778294	0.582140	-0.151981	0.179648	-73.970436	1.570710	-27.178080
51819		-0.778280	0.582170	-0.152101	0.179511	-73.978741	1.589699	-27.173894
51820		-0.778265	0.582189	-0.152236	0.179395	-73.986236	1.608870	-27.172750
51821		-0.778264	0.582196	-0.152362	0.179270	-73.991631	1.628276	-27.170036
51822		-0.778255	0.582193	-0.152557	0.179156	-73.998045	1.653127	-27.173313
51823		-0.778223	0.582210	-0.152762	0.179065	-74.007754	1.676677	-27.179530
51824		-0.778195	0.582230	-0.152949	0.178962	-74.017047	1.699254	-27.183289
51825		-0.778167	0.582249	-0.153128	0.178866	-74.026083	1.720806	-27.187238
51826		-0.778132	0.582269	-0.153331	0.178780	-74.036064	1.743565	-27.193726
51827		-0.778101	0.582289	-0.153506	0.178705	-74.045018	1.763283	-27.199266
51828		-0.778079	0.582297	-0.153689	0.178616	-74.052695	1.785037	-27.204158
51829		-0.778043	0.582314	-0.153882	0.178549	-74.061871	1.805666	-27.211747
51830		-0.777995	0.582334	-0.154099	0.178506	-74.072472	1.826736	-27.223311
51831		-0.777993	0.582302	-0.154272	0.178471	-74.074213	1.845139	-27.232447
51832		-0.777991	0.582278	-0.154432	0.178418	-74.076681	1.863290	-27.238903
51833		-0.777965	0.582277	-0.154611	0.178380	-74.082909	1.881363	-27.248204
51834		-0.777943	0.582270	-0.154798	0.178339	-74.088641	1.900559	-27.257780
51835		-0.777930	0.582238	-0.154993	0.178328	-74.091267	1.919079	-27.270803
51836		-0.777910	0.582222	-0.155182	0.178305	-74.095861	1.937490	-27.282247
51837		-0.777882	0.582207	-0.155390	0.178293	-74.101300	1.956679	-27.295969
51838		-0.777845	0.582209	-0.155590	0.178275	-74.108804	1.974961	-27.308750
51839		-0.777815	0.582186	-0.155812	0.178289	-74.113596	1.993758	-27.326019
51840		-0.777776	0.582180	-0.156025	0.178288	-74.120585	2.012288	-27.341241
51841		-0.777752	0.582152	-0.156233	0.178306	-74.124169	2.029751	-27.357787
51842		-0.777736	0.582121	-0.156426	0.178305	-74.126903	2.047461	-27.371576
51843		-0.777705	0.582117	-0.156609	0.178293	-74.133085	2.064026	-27.383659
51844		-0.777651	0.582144	-0.156806	0.178266	-74.144034	2.081896	-27.395362
51845		-0.777613	0.582152	-0.156977	0.178255	-74.151400	2.097002	-27.406759
51846		-0.777581	0.582155	-0.157142	0.178241	-74.157801	2.112039	-27.417386
51847		-0.777526	0.582182	-0.157325	0.178229	-74.168220	2.127639	-27.429489
51848		-0.777495	0.582188	-0.157484	0.178207	-74.174885	2.142540	-27.438905
51849		-0.777453	0.582197	-0.157647	0.178218	-74.182069	2.155412	-27.451785
51850		-0.777402	0.582215	-0.157817	0.178231	-74.190835	2.168417	-27.465337
51851		-0.777394	0.582194	-0.157936	0.178230	-74.192259	2.179423	-27.473736
51852		-0.777361	0.582209	-0.158034	0.178234	-74.197957	2.186975	-27.481230
51853		-0.777306	0.582249	-0.158140	0.178253	-74.207438	2.193299	-27.490754
51854		-0.777282	0.582251	-0.158224	0.178273	-74.210896	2.199011	-27.498780
51855		-0.777271	0.582229	-0.158319	0.178311	-74.211285	2.205114	-27.509083
51856		-0.777249	0.582250	-0.158364	0.178298	-74.215895	2.209180	-27.511204
51857		-0.777188	0.582326	-0.158418	0.178265	-74.228399	2.213536	-27.512203
51858		-0.777147	0.582363	-0.158497	0.178257	-74.236424	2.219636	-27.517278
51859		-0.777149	0.582348	-0.158543	0.178253	-74.236072	2.224338	-27.520114
51860		-0.777148	0.582342	-0.158557	0.178268	-74.235722	2.224706	-27.522538
51861		-0.777159	0.582315	-0.158588	0.178277	-74.233083	2.227588	-27.525600
51862		-0.777169	0.582298	-0.158600	0.178281	-74.231186	2.229018	-27.526799
51863		-0.777182	0.582267	-0.158618	0.178309	-74.227568	2.229584	-27.530668
51864		-0.777200	0.582241	-0.158611	0.178321	-74.223689	2.229052	-27.531177
51865		-0.777238	0.582197	-0.158596	0.178315	-74.217008	2.229683	-27.529449
51866		-0.777264	0.582177	-0.158560	0.178294	-74.212951	2.228722	-27.524798
51867		-0.777271	0.582184	-0.158541	0.178259	-74.213153	2.229372	-27.520182
51868		-0.777285	0.582196	-0.158472	0.178221	-74.212269	2.225732	-27.511604
51869		-0.777292	0.582203	-0.158430	0.178204	-74.211760	2.223153	-27.507037
51870		-0.777314	0.582187	-0.158386	0.178200	-74.207890	2.220199	-27.503498
51871		-0.777333	0.582168	-0.158357	0.178202	-74.204160	2.218183	-27.501468
51872		-0.777372	0.582146	-0.158270	0.178182	-74.197871	2.212963	-27.493298
51873		-0.777404	0.582123	-0.158212	0.178168	-74.192563	2.209761	-27.487770
51874		-0.777427	0.582118	-0.158149	0.178141	-74.189472	2.206424	-27.480582
51875		-0.777444	0.582122	-0.158084	0.178115	-74.187553	2.202621	-27.473413
51876		-0.777464	0.582126	-0.158005	0.178082	-74.185313	2.198046	-27.464725
51877		-0.777483	0.582137	-0.157927	0.178034	-74.183877	2.194406	-27.454560
51878		-0.777533	0.582124	-0.157793	0.177976	-74.177053	2.187589	-27.439441
51879		-0.777583	0.582099	-0.157677	0.177940	-74.169411	2.181002	-27.427639
51880		-0.777601	0.582117	-0.157584	0.177888	-74.168430	2.176066	-27.416056
51881		-0.777641	0.582122	-0.157447	0.177819	-74.163945	2.169159	-27.399617
51882		-0.777700	0.582099	-0.157323	0.177747	-74.156201	2.164424	-27.383853
51883		-0.777754	0.582082	-0.157204	0.177669	-74.149396	2.160401	-27.367987
51884		-0.777796	0.582076	-0.157097	0.177596	-74.144704	2.156541	-27.353383
51885		-0.777835	0.582082	-0.156967	0.177523	-74.140654	2.150445	-27.337173
51886		-0.777866	0.582096	-0.156836	0.177459	-74.137742	2.143252	-27.321719
51887		-0.777906	0.582092	-0.156723	0.177392	-74.133139	2.138434	-27.307319
51888		-0.777968	0.582056	-0.156620	0.177333	-74.124288	2.135046	-27.294279
51889		-0.778006	0.582041	-0.156535	0.177290	-74.119038	2.131351	-27.283991
51890		-0.778082	0.581972	-0.156442	0.177263	-74.106096	2.127582	-27.274664
51891		-0.778157	0.581914	-0.156336	0.177219	-74.094042	2.123611	-27.262674
51892		-0.778231	0.581855	-0.156234	0.177181	-74.082098	2.119606	-27.251670
51893		-0.778332	0.581779	-0.156108	0.177095	-74.066926	2.117456	-27.234340
51894		-0.778396	0.581745	-0.155982	0.177037	-74.057573	2.111874	-27.219697
51895		-0.778474	0.581695	-0.155875	0.176950	-74.046702	2.110525	-27.203682
51896		-0.778536	0.581658	-0.155778	0.176884	-74.037998	2.108116	-27.190472
51897		-0.778573	0.581635	-0.155729	0.176842	-74.033011	2.107708	-27.182917
51898		-0.778611	0.581613	-0.155672	0.176800	-74.027788	2.106498	-27.174803
51899		-0.778665	0.581574	-0.155602	0.176752	-74.019748	2.105233	-27.165188
51900		-0.778723	0.581507	-0.155558	0.176750	-74.008957	2.103844	-27.161713
51901		-0.778779	0.581462	-0.155518	0.176691	-74.001101	2.106121	-27.153102
51902		-0.778829	0.581424	-0.155449	0.176654	-73.993305	2.104041	-27.144589
51903		-0.778890	0.581351	-0.155410	0.176661	-73.981728	2.102707	-27.142339
51904		-0.778950	0.581288	-0.155366	0.176645	-73.971340	2.102192	-27.137469
51905		-0.778999	0.581234	-0.155309	0.176654	-73.961888	2.098369	-27.134079
51906		-0.779070	0.581156	-0.155246	0.176650	-73.948785	2.095976	-27.128991
51907		-0.779135	0.581084	-0.155206	0.176639	-73.937180	2.095715	-27.124858
51908		-0.779193	0.581006	-0.155188	0.176654	-73.925748	2.095710	-27.124857
51909		-0.779241	0.580927	-0.155197	0.176698	-73.915077	2.096045	-27.129421
51910		-0.779327	0.580800	-0.155190	0.176738	-73.897265	2.096812	-27.132373
51911		-0.779383	0.580708	-0.155206	0.176783	-73.885073	2.098130	-27.137481
51912		-0.779446	0.580611	-0.155205	0.176822	-73.871641	2.098581	-27.140841
51913		-0.779516	0.580508	-0.155196	0.176858	-73.856987	2.098699	-27.143407
51914		-0.779594	0.580410	-0.155157	0.176870	-73.842026	2.097763	-27.141503
51915		-0.779651	0.580337	-0.155123	0.176892	-73.830591	2.095814	-27.140907
51916		-0.779709	0.580255	-0.155118	0.176909	-73.819039	2.096938	-27.141945
51917		-0.779772	0.580172	-0.155076	0.176937	-73.806093	2.094052	-27.141322
51918		-0.779833	0.580085	-0.155067	0.176964	-73.793658	2.094266	-27.143006
51919		-0.779887	0.579989	-0.155098	0.177010	-73.781537	2.096940	-27.149431
51920		-0.779936	0.579894	-0.155136	0.177076	-73.769630	2.098771	-27.158061
51921		-0.780000	0.579760	-0.155195	0.177178	-73.753323	2.101093	-27.171555
51922		-0.780074	0.579614	-0.155254	0.177280	-73.735249	2.103858	-27.185109
51923		-0.780131	0.579488	-0.155320	0.177386	-73.720211	2.106342	-27.199450
51924		-0.780193	0.579368	-0.155371	0.177459	-73.705493	2.109584	-27.209752
51925		-0.780270	0.579222	-0.155414	0.177559	-73.686878	2.111161	-27.221823
51926		-0.780327	0.579106	-0.155458	0.177650	-73.672348	2.112417	-27.233246
51927		-0.780379	0.579008	-0.155513	0.177694	-73.660761	2.117262	-27.241138
51928		-0.780444	0.578886	-0.155559	0.177764	-73.645566	2.120474	-27.250689
51929		-0.780517	0.578757	-0.155599	0.177829	-73.629207	2.123590	-27.259424
51930		-0.780593	0.578624	-0.155644	0.177887	-73.612464	2.127851	-27.267749
51931		-0.780660	0.578486	-0.155735	0.177960	-73.596719	2.135212	-27.280846
51932		-0.780724	0.578373	-0.155785	0.178005	-73.582813	2.140208	-27.288351
51933		-0.780795	0.578236	-0.155853	0.178077	-73.566416	2.145574	-27.299682
51934		-0.780849	0.578121	-0.155943	0.178137	-73.553709	2.152936	-27.311515
51935		-0.780918	0.577994	-0.156003	0.178195	-73.538404	2.158319	-27.320942
51936		-0.780988	0.577869	-0.156057	0.178246	-73.523021	2.163516	-27.329372
51937		-0.781074	0.577733	-0.156082	0.178287	-73.505207	2.167351	-27.334688
51938		-0.781150	0.577628	-0.156092	0.178287	-73.490913	2.171730	-27.335062
51939		-0.781217	0.577523	-0.156111	0.178313	-73.477189	2.175094	-27.338714
51940		-0.781278	0.577443	-0.156118	0.178303	-73.466326	2.179096	-27.337988
51941		-0.781344	0.577334	-0.156142	0.178347	-73.452047	2.181733	-27.343582
51942		-0.781412	0.577241	-0.156135	0.178353	-73.438937	2.183890	-27.343397
51943		-0.781491	0.577122	-0.156144	0.178386	-73.422802	2.186366	-27.346893
51944		-0.781556	0.577027	-0.156149	0.178404	-73.409908	2.188683	-27.348679
51945		-0.781625	0.576904	-0.156197	0.178456	-73.394679	2.193292	-27.356793
51946		-0.781702	0.576786	-0.156209	0.178489	-73.378829	2.196010	-27.360432
51947		-0.781785	0.576668	-0.156207	0.178509	-73.362382	2.198334	-27.361847
51948		-0.781862	0.576567	-0.156174	0.178530	-73.347138	2.197500	-27.361173
51949		-0.781929	0.576482	-0.156149	0.178530	-73.334496	2.198175	-27.359178
51950		-0.781984	0.576413	-0.156122	0.178534	-73.324045	2.197903	-27.357511
51951		-0.782065	0.576321	-0.156071	0.178522	-73.309425	2.197450	-27.352556
51952		-0.782161	0.576215	-0.156008	0.178499	-73.292461	2.197194	-27.345497
51953		-0.782217	0.576137	-0.156005	0.178510	-73.281538	2.198773	-27.346221
51954		-0.782276	0.576066	-0.155980	0.178504	-73.270754	2.199469	-27.343618
51955		-0.782346	0.575988	-0.155947	0.178474	-73.258720	2.201313	-27.338281
51956		-0.782423	0.575882	-0.155927	0.178496	-73.243356	2.201603	-27.338644
51957		-0.782493	0.575786	-0.155916	0.178510	-73.229776	2.202902	-27.338911
51958		-0.782567	0.575694	-0.155874	0.178519	-73.215527	2.201816	-27.336563
51959		-0.782640	0.575593	-0.155855	0.178542	-73.200814	2.201965	-27.337157
51960		-0.782703	0.575507	-0.155822	0.178571	-73.187850	2.199965	-27.337257
51961		-0.782757	0.575428	-0.155807	0.178603	-73.176326	2.199084	-27.339054
51962		-0.782815	0.575341	-0.155785	0.178644	-73.163577	2.197248	-27.341126
51963		-0.782885	0.575262	-0.155721	0.178649	-73.150383	2.193993	-27.336883
51964		-0.782949	0.575176	-0.155706	0.178658	-73.137856	2.195009	-27.336428
51965		-0.783000	0.575087	-0.155716	0.178710	-73.126062	2.195169	-27.341836
51966		-0.783047	0.575016	-0.155712	0.178739	-73.116037	2.195207	-27.344120
51967		-0.783126	0.574922	-0.155651	0.178747	-73.100839	2.192522	-27.340271
51968		-0.783199	0.574831	-0.155597	0.178769	-73.086294	2.189408	-27.338304
51969		-0.783276	0.574709	-0.155586	0.178834	-73.069120	2.187993	-27.343289
51970		-0.783358	0.574600	-0.155538	0.178867	-73.052357	2.185177	-27.342716
51971		-0.783416	0.574556	-0.155439	0.178839	-73.042724	2.180117	-27.332866
51972		-0.783441	0.574542	-0.155377	0.178830	-73.038481	2.175888	-27.327602
51973		-0.783488	0.574491	-0.155307	0.178848	-73.028869	2.170241	-27.324136
51974		-0.783581	0.574383	-0.155225	0.178859	-73.011050	2.166042	-27.319062
51975		-0.783677	0.574265	-0.155150	0.178879	-72.992096	2.162095	-27.315415
51976		-0.783749	0.574171	-0.155097	0.178916	-72.977139	2.158092	-27.314865
51977		-0.783819	0.574073	-0.155044	0.178968	-72.961704	2.153217	-27.315789
51978		-0.783913	0.573949	-0.154978	0.179013	-72.942210	2.148503	-27.315026
51979		-0.784034	0.573786	-0.154913	0.179059	-72.917534	2.145191	-27.314347
51980		-0.784134	0.573646	-0.154870	0.179106	-72.896590	2.142821	-27.315358
51981		-0.784225	0.573532	-0.154794	0.179140	-72.878184	2.137695	-27.312905
51982		-0.784299	0.573447	-0.154739	0.179133	-72.864451	2.136294	-27.308151
51983		-0.784357	0.573386	-0.154654	0.179152	-72.852892	2.129669	-27.303741
51984		-0.784396	0.573342	-0.154595	0.179168	-72.844804	2.124915	-27.301000
51985		-0.784449	0.573280	-0.154528	0.179193	-72.833840	2.119447	-27.298456
51986		-0.784513	0.573206	-0.154439	0.179227	-72.820445	2.111931	-27.295128
51987		-0.784580	0.573117	-0.154365	0.179283	-72.805509	2.104542	-27.295025
51988		-0.784652	0.573022	-0.154282	0.179342	-72.789484	2.096451	-27.294502
51989		-0.784728	0.572933	-0.154188	0.179376	-72.773818	2.088880	-27.290774
51990		-0.784777	0.572868	-0.154112	0.179434	-72.762184	2.080489	-27.290658
51991		-0.784832	0.572800	-0.154042	0.179471	-72.750253	2.074101	-27.289032
51992		-0.784886	0.572736	-0.153961	0.179509	-72.738551	2.066542	-27.286761
51993		-0.784934	0.572664	-0.153903	0.179576	-72.726640	2.059262	-27.288805
51994		-0.784987	0.572589	-0.153841	0.179638	-72.714146	2.052109	-27.290189
51995		-0.785042	0.572517	-0.153749	0.179707	-72.700936	2.041784	-27.289961
51996		-0.785105	0.572428	-0.153663	0.179788	-72.685567	2.031735	-27.291345
51997		-0.785168	0.572334	-0.153608	0.179862	-72.670683	2.024893	-27.294168
51998		-0.785233	0.572231	-0.153531	0.179969	-72.653895	2.014208	-27.298648
51999		-0.785294	0.572136	-0.153452	0.180073	-72.638001	2.003256	-27.302703
52000		-0.785347	0.572057	-0.153374	0.180159	-72.624321	1.993174	-27.305141
52001		-0.785361	0.572021	-0.153315	0.180266	-72.617298	1.981837	-27.310997
52002		-0.785420	0.571926	-0.153247	0.180367	-72.601868	1.972091	-27.315589
52003		-0.785467	0.571849	-0.153184	0.180455	-72.589152	1.963100	-27.319336
52004		-0.785524	0.571760	-0.153121	0.180546	-72.574609	1.954259	-27.323278
52005		-0.785589	0.571656	-0.153044	0.180655	-72.557690	1.943582	-27.327905
52006		-0.785654	0.571550	-0.152980	0.180763	-72.540772	1.934033	-27.333442
52007		-0.785720	0.571434	-0.152941	0.180874	-72.523527	1.926799	-27.340948
52008		-0.785784	0.571328	-0.152900	0.180968	-72.507526	1.920308	-27.346668
52009		-0.785847	0.571221	-0.152841	0.181081	-72.490727	1.910820	-27.353002
52010		-0.785920	0.571097	-0.152805	0.181186	-72.472499	1.904629	-27.360126
52011		-0.785981	0.570986	-0.152775	0.181296	-72.456224	1.898074	-27.368189
52012		-0.786051	0.570880	-0.152705	0.181386	-72.439235	1.889352	-27.371586
52013		-0.786138	0.570774	-0.152608	0.181428	-72.421061	1.881516	-27.368448
52014		-0.786190	0.570690	-0.152536	0.181522	-72.407097	1.871556	-27.372149
52015		-0.786255	0.570605	-0.152433	0.181595	-72.391717	1.860387	-27.371700
52016		-0.786329	0.570512	-0.152326	0.181656	-72.375167	1.850060	-27.369682
52017		-0.786415	0.570403	-0.152213	0.181724	-72.356102	1.839086	-27.367986
52018		-0.786499	0.570295	-0.152111	0.181781	-72.337740	1.829924	-27.365965
52019		-0.786574	0.570198	-0.152010	0.181847	-72.320820	1.819762	-27.364889
52020		-0.786672	0.570062	-0.151940	0.181907	-72.299669	1.814161	-27.365379
52021		-0.786758	0.569946	-0.151855	0.181973	-72.280639	1.806046	-27.365399
52022		-0.786883	0.569777	-0.151744	0.182052	-72.253547	1.796614	-27.364784
52023		-0.786982	0.569625	-0.151679	0.182152	-72.230409	1.789105	-27.369424
52024		-0.787079	0.569490	-0.151597	0.182225	-72.208955	1.781474	-27.370319
52025		-0.787191	0.569335	-0.151510	0.182296	-72.184640	1.774176	-27.370550
52026		-0.787305	0.569182	-0.151418	0.182363	-72.160274	1.766623	-27.370136
52027		-0.787406	0.569035	-0.151350	0.182441	-72.137766	1.760261	-27.372532
52028		-0.787502	0.568904	-0.151256	0.182512	-72.116426	1.751469	-27.372423
52029		-0.787616	0.568744	-0.151178	0.182584	-72.091725	1.745059	-27.373466
52030		-0.787709	0.568611	-0.151100	0.182662	-72.070738	1.737450	-27.375139
52031		-0.787820	0.568456	-0.151022	0.182730	-72.046711	1.731111	-27.375874
52032		-0.787931	0.568295	-0.150966	0.182798	-72.022724	1.726883	-27.378085
52033		-0.788040	0.568134	-0.150909	0.182876	-71.998664	1.721900	-27.381114
52034		-0.788144	0.567986	-0.150849	0.182936	-71.976160	1.717465	-27.382397
52035		-0.788243	0.567827	-0.150828	0.183017	-71.953743	1.715324	-27.388336
52036		-0.788348	0.567671	-0.150787	0.183088	-71.930848	1.712176	-27.391864
52037		-0.788454	0.567520	-0.150736	0.183139	-71.908374	1.709214	-27.392828
52038		-0.788536	0.567385	-0.150728	0.183210	-71.889635	1.708083	-27.398783
52039		-0.788624	0.567254	-0.150673	0.183284	-71.869667	1.702571	-27.401735
52040		-0.788696	0.567137	-0.150653	0.183351	-71.853006	1.700127	-27.406489
52041		-0.788755	0.567028	-0.150644	0.183443	-71.837789	1.696600	-27.414464
52042		-0.788823	0.566922	-0.150603	0.183512	-71.821838	1.691896	-27.417932
52043		-0.788883	0.566835	-0.150575	0.183546	-71.808927	1.690015	-27.419089
52044		-0.788924	0.566765	-0.150563	0.183593	-71.799039	1.687997	-27.422627
52045		-0.788949	0.566709	-0.150557	0.183663	-71.791189	1.684545	-27.428749
52046		-0.788986	0.566651	-0.150524	0.183712	-71.782012	1.680266	-27.430999
52047		-0.789024	0.566582	-0.150524	0.183763	-71.772622	1.679018	-27.435728
52048		-0.789049	0.566527	-0.150541	0.183811	-71.765673	1.679080	-27.441405
52049		-0.789048	0.566502	-0.150565	0.183875	-71.763136	1.677633	-27.449080
52050		-0.789068	0.566454	-0.150562	0.183939	-71.756479	1.674570	-27.454886
52051		-0.789078	0.566414	-0.150575	0.184004	-71.751573	1.672509	-27.461927
52052		-0.789078	0.566383	-0.150594	0.184086	-71.748028	1.669552	-27.471017
52053		-0.789057	0.566377	-0.150630	0.184164	-71.748550	1.667515	-27.480946
52054		-0.789058	0.566321	-0.150684	0.184290	-71.742910	1.665369	-27.496597
52055		-0.789057	0.566254	-0.150756	0.184438	-71.736328	1.663682	-27.515704
52056		-0.789044	0.566211	-0.150816	0.184580	-71.732700	1.660549	-27.533339
52057		-0.789040	0.566145	-0.150882	0.184742	-71.726123	1.657366	-27.553232
52058		-0.789045	0.566071	-0.150946	0.184898	-71.718298	1.654696	-27.572461
52059		-0.789049	0.565991	-0.151018	0.185065	-71.710098	1.652173	-27.593357
52060		-0.789048	0.565916	-0.151081	0.185246	-71.702167	1.647667	-27.614956
52061		-0.789062	0.565858	-0.151094	0.185357	-71.694723	1.643061	-27.626269
52062		-0.789050	0.565838	-0.151114	0.185451	-71.692705	1.639073	-27.636599
52063		-0.789033	0.565807	-0.151146	0.185589	-71.689784	1.633289	-27.651935
52064		-0.789033	0.565792	-0.151126	0.185652	-71.687002	1.627745	-27.656559
52065		-0.789047	0.565763	-0.151087	0.185713	-71.681764	1.621194	-27.659568
52066		-0.789053	0.565732	-0.151084	0.185785	-71.677375	1.617003	-27.666150
52067		-0.789067	0.565708	-0.151055	0.185824	-71.673024	1.612570	-27.667816
52068		-0.789074	0.565672	-0.151064	0.185897	-71.668517	1.609527	-27.675418
52069		-0.789083	0.565636	-0.151060	0.185971	-71.663476	1.605292	-27.682134
52070		-0.789094	0.565609	-0.151039	0.186023	-71.659153	1.600776	-27.685530
52071		-0.789094	0.565593	-0.151022	0.186086	-71.656318	1.595546	-27.690320
52072		-0.789098	0.565599	-0.150976	0.186087	-71.655466	1.591168	-27.687235
52073		-0.789101	0.565604	-0.150934	0.186092	-71.654672	1.587046	-27.684844
52074		-0.789106	0.565605	-0.150900	0.186096	-71.653703	1.583817	-27.682778
52075		-0.789133	0.565587	-0.150848	0.186079	-71.649263	1.580966	-27.677506
52076		-0.789146	0.565587	-0.150804	0.186059	-71.647773	1.578524	-27.672522
52077		-0.789145	0.565589	-0.150801	0.186060	-71.647934	1.578130	-27.672415
52078		-0.789147	0.565588	-0.150797	0.186056	-71.647627	1.578108	-27.671722
52079		-0.789157	0.565569	-0.150796	0.186074	-71.645045	1.577448	-27.673427
52080		-0.789193	0.565503	-0.150812	0.186111	-71.636549	1.578540	-27.677892
52081		-0.789230	0.565437	-0.150822	0.186143	-71.627837	1.579434	-27.681597
52082		-0.789263	0.565412	-0.150776	0.186115	-71.622848	1.578183	-27.675571
52083		-0.789259	0.565419	-0.150773	0.186116	-71.623657	1.577672	-27.675495
52084		-0.789258	0.565424	-0.150761	0.186114	-71.623941	1.576539	-27.674533
52085		-0.789295	0.565381	-0.150710	0.186129	-71.616234	1.572529	-27.672296
52086		-0.789347	0.565312	-0.150671	0.186147	-71.605453	1.570109	-27.671172
52087		-0.789417	0.565227	-0.150623	0.186151	-71.592073	1.568641	-27.668037
52088		-0.789528	0.565097	-0.150525	0.186153	-71.570840	1.564321	-27.661128
52089		-0.789635	0.564964	-0.150438	0.186171	-71.549529	1.559939	-27.656530
52090		-0.789741	0.564842	-0.150355	0.186160	-71.529821	1.557565	-27.649507
52091		-0.789864	0.564689	-0.150282	0.186160	-71.506346	1.556306	-27.644095
52092		-0.790003	0.564542	-0.150175	0.186105	-71.482415	1.555706	-27.631146
52093		-0.790098	0.564446	-0.150091	0.186058	-71.466240	1.554816	-27.620680
52094		-0.790194	0.564346	-0.150019	0.186013	-71.449969	1.555041	-27.611186
52095		-0.790316	0.564215	-0.149929	0.185966	-71.428837	1.554805	-27.600169
52096		-0.790433	0.564078	-0.149857	0.185945	-71.407467	1.554573	-27.592944
52097		-0.790541	0.563950	-0.149790	0.185925	-71.387613	1.554376	-27.586128
52098		-0.790652	0.563820	-0.149727	0.185898	-71.367613	1.555084	-27.578985
52099		-0.790755	0.563688	-0.149676	0.185902	-71.347795	1.554744	-27.575496
52100		-0.790859	0.563562	-0.149629	0.185877	-71.328892	1.556536	-27.569652
52101		-0.790957	0.563445	-0.149574	0.185860	-71.310882	1.556854	-27.563976
52102		-0.791060	0.563340	-0.149492	0.185806	-71.293658	1.556951	-27.552992
52103		-0.791146	0.563241	-0.149446	0.185778	-71.278424	1.558170	-27.546820
52104		-0.791222	0.563173	-0.149364	0.185725	-71.266191	1.556878	-27.535942
52105		-0.791306	0.563090	-0.149278	0.185688	-71.251865	1.554736	-27.526331
52106		-0.791372	0.563033	-0.149204	0.185640	-71.241323	1.553424	-27.516484
52107		-0.791416	0.562984	-0.149167	0.185632	-71.233400	1.552329	-27.513089
52108		-0.791473	0.562920	-0.149122	0.185617	-71.222987	1.551536	-27.508399
52109		-0.791552	0.562833	-0.149039	0.185613	-71.208249	1.547517	-27.502104
52110		-0.791619	0.562759	-0.148980	0.185600	-71.195991	1.545722	-27.496590
52111		-0.791649	0.562693	-0.148973	0.185673	-71.186834	1.542284	-27.503006
52112		-0.791677	0.562656	-0.148928	0.185703	-71.180139	1.537519	-27.502688
52113		-0.791735	0.562580	-0.148855	0.185744	-71.167279	1.530847	-27.501420
52114		-0.791742	0.562584	-0.148797	0.185748	-71.165804	1.525379	-27.497818
52115		-0.791745	0.562582	-0.148752	0.185781	-71.163890	1.519252	-27.497826
52116		-0.791762	0.562576	-0.148686	0.185780	-71.160723	1.513794	-27.493196
52117		-0.791754	0.562596	-0.148618	0.185809	-71.161086	1.505199	-27.491250
52118		-0.791760	0.562600	-0.148555	0.185820	-71.159459	1.498721	-27.487852
52119		-0.791770	0.562595	-0.148487	0.185844	-71.156385	1.491272	-27.485489
52120		-0.791747	0.562627	-0.148459	0.185871	-71.159712	1.485917	-27.486192
52121		-0.791747	0.562625	-0.148411	0.185915	-71.157838	1.478761	-27.487025
52122		-0.791759	0.562609	-0.148340	0.185965	-71.153241	1.469701	-27.486865
52123		-0.791758	0.562613	-0.148275	0.186012	-71.151514	1.460661	-27.486885
52124		-0.791732	0.562650	-0.148216	0.186057	-71.154501	1.451124	-27.487182
52125		-0.791710	0.562684	-0.148138	0.186110	-71.156411	1.439577	-27.486848
52126		-0.791669	0.562747	-0.148076	0.186144	-71.162855	1.429683	-27.486013
52127		-0.791639	0.562794	-0.147997	0.186192	-71.166597	1.417898	-27.485149
52128		-0.791605	0.562844	-0.147922	0.186243	-71.170770	1.406141	-27.484910
52129		-0.791582	0.562890	-0.147838	0.186271	-71.174049	1.395375	-27.481842
52130		-0.791559	0.562921	-0.147774	0.186327	-71.176136	1.384927	-27.482810
52131		-0.791525	0.562958	-0.147718	0.186402	-71.179247	1.373634	-27.486170
52132		-0.791498	0.562987	-0.147672	0.186464	-71.181684	1.364383	-27.488902
52133		-0.791496	0.562993	-0.147591	0.186521	-71.179711	1.353135	-27.488829
52134		-0.791447	0.563045	-0.147577	0.186584	-71.186306	1.345922	-27.493957
52135		-0.791407	0.563093	-0.147535	0.186641	-71.191484	1.336687	-27.496489
52136		-0.791369	0.563130	-0.147503	0.186715	-71.195332	1.327566	-27.501466
52137		-0.791329	0.563173	-0.147482	0.186772	-71.200557	1.320462	-27.505515
52138		-0.791286	0.563209	-0.147478	0.186850	-71.205379	1.313589	-27.512802
52139		-0.791239	0.563246	-0.147474	0.186941	-71.210388	1.305755	-27.521276
52140		-0.791207	0.563267	-0.147488	0.187002	-71.213707	1.302065	-27.528147
52141		-0.791175	0.563276	-0.147504	0.187098	-71.215571	1.296558	-27.538440
52142		-0.791131	0.563300	-0.147532	0.187187	-71.219871	1.292131	-27.548979
52143		-0.791096	0.563319	-0.147540	0.187271	-71.222818	1.286378	-27.557599
52144		-0.791095	0.563316	-0.147511	0.187308	-71.221464	1.281431	-27.559156
52145		-0.791069	0.563334	-0.147508	0.187368	-71.223789	1.276472	-27.564668
52146		-0.791032	0.563377	-0.147499	0.187398	-71.229426	1.272147	-27.566939
52147		-0.791000	0.563415	-0.147483	0.187434	-71.233997	1.266960	-27.569372
52148		-0.790969	0.563439	-0.147496	0.187481	-71.237742	1.264131	-27.574821
52149		-0.790930	0.563475	-0.147507	0.187529	-71.243083	1.260616	-27.580210
52150		-0.790916	0.563480	-0.147510	0.187570	-71.243921	1.257859	-27.584356
52151		-0.790883	0.563499	-0.147550	0.187620	-71.247980	1.257238	-27.591930
52152		-0.790865	0.563503	-0.147564	0.187674	-71.249012	1.254664	-27.598044
52153		-0.790860	0.563484	-0.147586	0.187735	-71.247255	1.253066	-27.605427
52154		-0.790857	0.563479	-0.147587	0.187765	-71.246559	1.251333	-27.608345
52155		-0.790844	0.563478	-0.147608	0.187803	-71.247279	1.250468	-27.613458
52156		-0.790832	0.563474	-0.147619	0.187856	-71.247092	1.247951	-27.619295
52157		-0.790826	0.563470	-0.147645	0.187875	-71.247509	1.249088	-27.622867
52158		-0.790836	0.563456	-0.147657	0.187865	-71.246025	1.251267	-27.622731
52159		-0.790833	0.563453	-0.147680	0.187868	-71.246417	1.253220	-27.624687
52160		-0.790854	0.563432	-0.147684	0.187839	-71.243677	1.256282	-27.622103
52161		-0.790879	0.563420	-0.147678	0.187777	-71.241683	1.260385	-27.615720
52162		-0.790874	0.563423	-0.147713	0.187760	-71.243417	1.264508	-27.616484
52163		-0.790874	0.563411	-0.147762	0.187755	-71.243493	1.269524	-27.619496
52164		-0.790896	0.563386	-0.147785	0.187721	-71.240788	1.274747	-27.617728
52165		-0.790887	0.563392	-0.147831	0.187704	-71.243231	1.279727	-27.619312
52166		-0.790907	0.563368	-0.147871	0.187661	-71.241308	1.287010	-27.617890
52167		-0.790922	0.563363	-0.147882	0.187603	-71.241045	1.292081	-27.613178
52168		-0.790935	0.563355	-0.147900	0.187558	-71.240580	1.297002	-27.609998
52169		-0.790960	0.563345	-0.147898	0.187488	-71.238999	1.301949	-27.603165
52170		-0.790989	0.563318	-0.147904	0.187437	-71.235626	1.306943	-27.598679
52171		-0.791028	0.563285	-0.147885	0.187390	-71.230279	1.309524	-27.592847
52172		-0.791070	0.563247	-0.147867	0.187343	-71.224434	1.312472	-27.586989
52173		-0.791107	0.563204	-0.147885	0.187298	-71.219218	1.318608	-27.583884
52174		-0.791133	0.563180	-0.147890	0.187257	-71.216158	1.322632	-27.580349
52175		-0.791156	0.563161	-0.147908	0.187204	-71.214118	1.328561	-27.576439
52176		-0.791191	0.563123	-0.147913	0.187166	-71.209092	1.332742	-27.573096
52177		-0.791219	0.563092	-0.147923	0.187135	-71.205118	1.336845	-27.570744
52178		-0.791260	0.563038	-0.147943	0.187107	-71.198477	1.342375	-27.569359
52179		-0.791326	0.562963	-0.147934	0.187061	-71.187892	1.347207	-27.564241
52180		-0.791366	0.562910	-0.147942	0.187046	-71.180939	1.350717	-27.563259
52181		-0.791425	0.562835	-0.147960	0.187006	-71.171302	1.357517	-27.560616
52182		-0.791461	0.562784	-0.147973	0.186995	-71.164819	1.361067	-27.560383
52183		-0.791491	0.562743	-0.147995	0.186977	-71.159932	1.365665	-27.560117
52184		-0.791525	0.562698	-0.148012	0.186956	-71.154352	1.370123	-27.559211
52185		-0.791570	0.562647	-0.148008	0.186922	-71.147222	1.373755	-27.555604
52186		-0.791584	0.562614	-0.148066	0.186914	-71.144780	1.380486	-27.558790
52187		-0.791606	0.562579	-0.148102	0.186897	-71.141228	1.386000	-27.559647
52188		-0.791652	0.562514	-0.148114	0.186890	-71.132778	1.389704	-27.559604
52189		-0.791683	0.562463	-0.148147	0.186887	-71.126927	1.394518	-27.561564
52190		-0.791705	0.562421	-0.148178	0.186894	-71.122328	1.398235	-27.564326
52191		-0.791729	0.562341	-0.148258	0.186969	-71.114219	1.402692	-27.576949
52192		-0.791750	0.562292	-0.148296	0.186999	-71.108913	1.405685	-27.582353
52193		-0.791757	0.562274	-0.148320	0.187003	-71.107407	1.408043	-27.584453
52194		-0.791746	0.562273	-0.148367	0.187013	-71.108900	1.411473	-27.588610
52195		-0.791757	0.562242	-0.148387	0.187045	-71.105327	1.412167	-27.593039
52196		-0.791789	0.562194	-0.148392	0.187052	-71.099002	1.413739	-27.593957
52197		-0.791827	0.562125	-0.148398	0.187093	-71.089783	1.413739	-27.598209
52198		-0.791861	0.562063	-0.148424	0.187113	-71.082315	1.416702	-27.601835
52199		-0.791911	0.561976	-0.148442	0.187149	-71.071003	1.418771	-27.606404
52200		-0.791957	0.561902	-0.148443	0.187173	-71.061061	1.419688	-27.608656
52201		-0.791984	0.561841	-0.148478	0.187216	-71.053966	1.421897	-27.615073
52202		-0.792015	0.561782	-0.148509	0.187240	-71.046969	1.424901	-27.619449
52203		-0.792045	0.561725	-0.148508	0.187284	-71.039238	1.423674	-27.623420
52204		-0.792082	0.561657	-0.148541	0.187301	-71.031178	1.427743	-27.627315
52205		-0.792094	0.561622	-0.148566	0.187341	-71.027193	1.428319	-27.632801
52206		-0.792102	0.561597	-0.148591	0.187362	-71.024718	1.429900	-27.636527
52207		-0.792121	0.561550	-0.148607	0.187409	-71.018911	1.429710	-27.642111
52208		-0.792143	0.561500	-0.148622	0.187454	-71.012662	1.429630	-27.647374
52209		-0.792151	0.561471	-0.148636	0.187493	-71.009222	1.429121	-27.651995
52210		-0.792174	0.561425	-0.148645	0.187530	-71.003248	1.428899	-27.656039
52211		-0.792187	0.561393	-0.148647	0.187568	-70.998983	1.427546	-27.659813
52212		-0.792203	0.561355	-0.148658	0.187606	-70.994228	1.427266	-27.664137
52213		-0.792201	0.561348	-0.148668	0.187629	-70.993584	1.426825	-27.667035
52214		-0.792208	0.561327	-0.148681	0.187649	-70.991228	1.427254	-27.669745
52215		-0.792221	0.561287	-0.148702	0.187700	-70.986466	1.426911	-27.676077
52216		-0.792218	0.561281	-0.148709	0.187723	-70.985919	1.426174	-27.678799
52217		-0.792230	0.561265	-0.148692	0.187733	-70.983252	1.424559	-27.678593
52218		-0.792239	0.561247	-0.148675	0.187760	-70.980229	1.421778	-27.679941
52219		-0.792250	0.561229	-0.148667	0.187777	-70.977485	1.420583	-27.680933
52220		-0.792274	0.561206	-0.148630	0.187772	-70.973010	1.418498	-27.677861
52221		-0.792301	0.561184	-0.148565	0.187775	-70.967715	1.413225	-27.673617
52222		-0.792315	0.561176	-0.148517	0.187780	-70.964892	1.408965	-27.670759
52223		-0.792340	0.561144	-0.148475	0.187806	-70.959053	1.404659	-27.670306
52224		-0.792391	0.561099	-0.148401	0.187780	-70.950376	1.401365	-27.662662
52225		-0.792400	0.561107	-0.148351	0.187757	-70.949664	1.398362	-27.656974
52226		-0.792442	0.561073	-0.148284	0.187736	-70.942677	1.395051	-27.650360
52227		-0.792482	0.561048	-0.148205	0.187703	-70.936391	1.391270	-27.641577
52228		-0.792524	0.561042	-0.148098	0.187630	-70.931812	1.387002	-27.627173
52229		-0.792579	0.561008	-0.147998	0.187575	-70.923657	1.383086	-27.614956
52230		-0.792638	0.560988	-0.147879	0.187482	-70.916605	1.379748	-27.597825
52231		-0.792695	0.560964	-0.147793	0.187381	-70.910239	1.379925	-27.582116
52232		-0.792751	0.560945	-0.147686	0.187286	-70.903815	1.377633	-27.565533
52233		-0.792808	0.560926	-0.147577	0.187189	-70.897387	1.375380	-27.548683
52234		-0.792849	0.560924	-0.147499	0.187079	-70.894341	1.376041	-27.532799
52235		-0.792904	0.560911	-0.147408	0.186958	-70.889357	1.376796	-27.514850
52236		-0.792987	0.560866	-0.147282	0.186838	-70.878765	1.375434	-27.494514
52237		-0.793061	0.560832	-0.147176	0.186711	-70.870251	1.375910	-27.474943
52238		-0.793109	0.560814	-0.147114	0.186611	-70.865585	1.377909	-27.461020
52239		-0.793171	0.560790	-0.147027	0.186486	-70.859263	1.379613	-27.443102
52240		-0.793253	0.560746	-0.146925	0.186350	-70.849606	1.381301	-27.422909
52241		-0.793331	0.560712	-0.146811	0.186211	-70.840896	1.382029	-27.401606
52242		-0.793409	0.560679	-0.146723	0.186048	-70.833197	1.386535	-27.379864
52243		-0.793487	0.560639	-0.146668	0.185879	-70.825759	1.394463	-27.359793
52244		-0.793567	0.560596	-0.146588	0.185728	-70.817030	1.399201	-27.339741
52245		-0.793631	0.560565	-0.146537	0.185592	-70.810935	1.405010	-27.323119
52246		-0.793717	0.560522	-0.146465	0.185409	-70.802468	1.412573	-27.300490
52247		-0.793783	0.560499	-0.146432	0.185222	-70.798014	1.423225	-27.280321
52248		-0.793832	0.560496	-0.146410	0.185039	-70.796765	1.433782	-27.261194
52249		-0.793882	0.560507	-0.146380	0.184816	-70.797044	1.446052	-27.237685
52250		-0.793915	0.560538	-0.146371	0.184584	-70.800887	1.460051	-27.214929
52251		-0.793939	0.560565	-0.146406	0.184374	-70.805659	1.476508	-27.197198
52252		-0.793993	0.560547	-0.146435	0.184171	-70.804008	1.493489	-27.179765
52253		-0.794075	0.560500	-0.146465	0.183937	-70.798502	1.513663	-27.159244
52254		-0.794179	0.560449	-0.146469	0.183638	-70.791611	1.536070	-27.130858
52255		-0.794307	0.560395	-0.146421	0.183290	-70.782359	1.557286	-27.093986
52256		-0.794407	0.560395	-0.146344	0.182916	-70.779379	1.576015	-27.052885
52257		-0.794477	0.560453	-0.146244	0.182512	-70.783607	1.592810	-27.007281
52258		-0.794499	0.560591	-0.146124	0.182089	-70.798002	1.606517	-26.958731
52259		-0.794522	0.560754	-0.145950	0.181630	-70.813817	1.617213	-26.903011
52260		-0.794548	0.560924	-0.145712	0.181178	-70.828502	1.621457	-26.843637
52261		-0.794562	0.561119	-0.145467	0.180710	-70.846439	1.625469	-26.782198
52262		-0.794599	0.561278	-0.145227	0.180247	-70.859555	1.630712	-26.721612
52263		-0.794667	0.561400	-0.144956	0.179784	-70.866629	1.634360	-26.658741
52264		-0.794742	0.561501	-0.144687	0.179349	-70.870934	1.637076	-26.598776
52265		-0.794837	0.561566	-0.144435	0.178932	-70.870873	1.641230	-26.541525
52266		-0.794954	0.561604	-0.144170	0.178507	-70.866686	1.645571	-26.482590
52267		-0.795075	0.561623	-0.143921	0.178107	-70.860591	1.650236	-26.427140
52268		-0.795179	0.561658	-0.143677	0.177732	-70.856693	1.653116	-26.374515
52269		-0.795278	0.561687	-0.143470	0.177361	-70.853385	1.659198	-26.324737
52270		-0.795385	0.561699	-0.143272	0.177003	-70.848063	1.665747	-26.276851
52271		-0.795484	0.561721	-0.143078	0.176643	-70.844372	1.672391	-26.229173
52272		-0.795567	0.561753	-0.142907	0.176308	-70.842623	1.679139	-26.185319
52273		-0.795634	0.561799	-0.142763	0.175973	-70.843851	1.687661	-26.143425
52274		-0.795703	0.561820	-0.142650	0.175689	-70.842761	1.696350	-26.108448
52275		-0.795780	0.561817	-0.142558	0.175422	-70.839012	1.706512	-26.076621
52276		-0.795838	0.561829	-0.142462	0.175198	-70.837337	1.712863	-26.048608
52277		-0.795902	0.561839	-0.142356	0.174961	-70.834929	1.719275	-26.018658
52278		-0.795963	0.561838	-0.142281	0.174751	-70.832095	1.727011	-25.993344
52279		-0.796016	0.561829	-0.142226	0.174579	-70.828940	1.734083	-25.973154
52280		-0.796086	0.561803	-0.142140	0.174418	-70.822272	1.738299	-25.951726
52281		-0.796172	0.561760	-0.142031	0.174250	-70.812739	1.741438	-25.928029
52282		-0.796250	0.561720	-0.141937	0.174098	-70.803956	1.744763	-25.906988
52283		-0.796331	0.561676	-0.141817	0.173969	-70.793775	1.744255	-25.886274
52284		-0.796416	0.561619	-0.141740	0.173826	-70.783362	1.748907	-25.867181
52285		-0.796498	0.561555	-0.141658	0.173724	-70.771737	1.750585	-25.851683
52286		-0.796604	0.561464	-0.141574	0.173598	-70.756495	1.754563	-25.833628
52287		-0.796706	0.561359	-0.141503	0.173532	-70.739616	1.756134	-25.822203
52288		-0.796803	0.561263	-0.141436	0.173451	-70.724223	1.758644	-25.809691
52289		-0.796915	0.561142	-0.141368	0.173383	-70.705357	1.761046	-25.798204
52290		-0.797033	0.561016	-0.141281	0.173317	-70.685267	1.761723	-25.785718
52291		-0.797159	0.560879	-0.141191	0.173254	-70.663493	1.762395	-25.773207
52292		-0.797271	0.560758	-0.141120	0.173191	-70.644490	1.764179	-25.762017
52293		-0.797400	0.560598	-0.141056	0.173165	-70.620510	1.765244	-25.754817
52294		-0.797540	0.560442	-0.140956	0.173108	-70.595859	1.765071	-25.742160
52295		-0.797695	0.560266	-0.140863	0.173036	-70.568706	1.767253	-25.728574
52296		-0.797849	0.560093	-0.140769	0.172965	-70.541886	1.769137	-25.714953
52297		-0.797991	0.559937	-0.140684	0.172882	-70.517685	1.772062	-25.700883
52298		-0.798130	0.559781	-0.140620	0.172797	-70.494199	1.776942	-25.687964
52299		-0.798273	0.559624	-0.140550	0.172706	-70.470274	1.781847	-25.674152
52300		-0.798413	0.559483	-0.140453	0.172595	-70.447732	1.785096	-25.656581
52301		-0.798583	0.559328	-0.140308	0.172428	-70.421722	1.788353	-25.630306
52302		-0.798752	0.559190	-0.140103	0.172256	-70.395973	1.786088	-25.599543
52303		-0.798907	0.559086	-0.139879	0.172058	-70.374180	1.782801	-25.564985
52304		-0.799065	0.558994	-0.139616	0.171836	-70.352776	1.777203	-25.525493
52305		-0.799230	0.558902	-0.139306	0.171620	-70.329878	1.767110	-25.483382
52306		-0.799387	0.558842	-0.138959	0.171367	-70.309968	1.755203	-25.435220
52307		-0.799538	0.558792	-0.138590	0.171121	-70.290959	1.740570	-25.386363
52308		-0.799675	0.558795	-0.138178	0.170807	-70.277660	1.725040	-25.328090
52309		-0.799837	0.558765	-0.137717	0.170518	-70.258318	1.704378	-25.268711
52310		-0.800059	0.558674	-0.137215	0.170179	-70.229344	1.685375	-25.201849
52311		-0.800272	0.558610	-0.136671	0.169823	-70.202664	1.662887	-25.130393
52312		-0.800478	0.558560	-0.136129	0.169455	-70.178011	1.640839	-25.058017
52313		-0.800688	0.558516	-0.135559	0.169061	-70.153499	1.617984	-24.981308
52314		-0.800906	0.558494	-0.134936	0.168600	-70.130192	1.594036	-24.894626
52315		-0.801130	0.558483	-0.134283	0.168095	-70.107414	1.570140	-24.801688
52316		-0.801349	0.558507	-0.133597	0.167515	-70.088581	1.547075	-24.699439
52317		-0.801539	0.558592	-0.132896	0.166878	-70.077588	1.524722	-24.590843
52318		-0.801729	0.558703	-0.132180	0.166163	-70.069734	1.505472	-24.473801
52319		-0.801916	0.558838	-0.131453	0.165383	-70.064870	1.488957	-24.349820
52320		-0.802143	0.558964	-0.130639	0.164497	-70.056221	1.471904	-24.209855
52321		-0.802437	0.559033	-0.129759	0.163520	-70.037822	1.456681	-24.056718
52322		-0.802761	0.559090	-0.128828	0.162471	-70.016306	1.441990	-23.893068
52323		-0.803093	0.559176	-0.127831	0.161320	-69.996974	1.427260	-23.715474
52324		-0.803472	0.559285	-0.126653	0.159975	-69.975496	1.408476	-23.507041
52325		-0.803952	0.559325	-0.125308	0.158480	-69.939731	1.386644	-23.272917
52326		-0.804454	0.559370	-0.123869	0.156892	-69.902449	1.362215	-23.023739
52327		-0.804989	0.559402	-0.122367	0.155207	-69.861763	1.338682	-22.761163
52328		-0.805542	0.559500	-0.120682	0.153292	-69.825383	1.311954	-22.464447
52329		-0.806096	0.559645	-0.118897	0.151230	-69.793217	1.284357	-22.147165
52330		-0.806638	0.559841	-0.117050	0.149038	-69.767000	1.258245	-21.813543
52331		-0.807174	0.560071	-0.115166	0.146720	-69.745263	1.235979	-21.465754
52332		-0.807781	0.560289	-0.113057	0.144165	-69.716499	1.209220	-21.080320
52333		-0.808492	0.560423	-0.110757	0.141421	-69.672092	1.179255	-20.664277
52334		-0.809270	0.560473	-0.108394	0.138574	-69.615858	1.152038	-20.234424
52335		-0.810088	0.560459	-0.106011	0.135662	-69.551681	1.128276	-19.797259
52336		-0.810989	0.560361	-0.103493	0.132597	-69.473819	1.103542	-19.336654
52337		-0.811974	0.560165	-0.100845	0.129395	-69.380911	1.077362	-18.854605
52338		-0.813006	0.559928	-0.098087	0.126017	-69.281419	1.052552	-18.348796
52339		-0.814110	0.559572	-0.095306	0.122557	-69.166717	1.032574	-17.834073
52340		-0.815215	0.559196	-0.092496	0.119032	-69.050476	1.013201	-17.311514
52341		-0.816288	0.558825	-0.089721	0.115488	-68.937690	0.997086	-16.789919
52342		-0.817305	0.558507	-0.086950	0.111899	-68.833981	0.981920	-16.264794
52343		-0.818291	0.558184	-0.084241	0.108324	-68.732704	0.970522	-15.745472
52344		-0.819191	0.557961	-0.081522	0.104684	-68.646715	0.959485	-15.219690
52345		-0.819968	0.557875	-0.078842	0.101058	-68.581997	0.947746	-14.698485
52346		-0.820628	0.557911	-0.076223	0.097437	-68.537074	0.938518	-14.182077
52347		-0.821177	0.558052	-0.073706	0.093882	-68.509924	0.932238	-13.679060
52348		-0.821611	0.558327	-0.071209	0.090305	-68.503234	0.926715	-13.175648
52349		-0.821961	0.558680	-0.068757	0.086778	-68.509522	0.920745	-12.680320
52350		-0.822176	0.559203	-0.066302	0.083202	-68.540728	0.915056	-12.180462
52351		-0.822291	0.559838	-0.063878	0.079616	-68.589490	0.911504	-11.682264
52352		-0.822270	0.560620	-0.061618	0.076033	-68.662326	0.921456	-11.195252
52353		-0.822135	0.561525	-0.059472	0.072442	-68.755088	0.941513	-10.715332
52354		-0.821933	0.562487	-0.057452	0.068805	-68.858853	0.976345	-10.239507
52355		-0.821675	0.563480	-0.055579	0.065196	-68.969843	1.023509	-9.776270
52356		-0.821398	0.564462	-0.053820	0.061571	-69.081690	1.083344	-9.319346
52357		-0.821109	0.565423	-0.052159	0.057932	-69.192784	1.154293	-8.867659
52358		-0.820899	0.566229	-0.050590	0.054310	-69.284207	1.235119	-8.423607
52359		-0.820765	0.566890	-0.049141	0.050655	-69.357468	1.331419	-7.984468
52360		-0.820631	0.567518	-0.047832	0.046904	-69.428048	1.447881	-7.545595
52361		-0.820549	0.568066	-0.046482	0.042884	-69.487418	1.579264	-7.078781
52362		-0.820505	0.568561	-0.044977	0.038569	-69.537834	1.716253	-6.574084
52363		-0.820364	0.569182	-0.043348	0.034000	-69.605060	1.857712	-6.037849
52364		-0.820018	0.570073	-0.041558	0.029309	-69.709032	1.990899	-5.480508
52365		-0.819559	0.571088	-0.039698	0.024595	-69.830393	2.119142	-4.917093
52366		-0.819032	0.572155	-0.037803	0.019913	-69.959591	2.242941	-4.354901
52367		-0.818514	0.573159	-0.035909	0.015326	-70.081169	2.362137	-3.802000
52368		-0.818064	0.574018	-0.034039	0.010769	-70.183517	2.483356	-3.253274
52369		-0.817722	0.574679	-0.032176	0.006218	-70.259135	2.606451	-2.705373
52370		-0.817447	0.575199	-0.030385	0.001665	-70.316138	2.737516	-2.161677
52371		-0.817215	0.575614	-0.028644	-0.002872	-70.359433	2.873076	-1.622710
52372		-0.817052	0.575888	-0.026927	-0.007393	-70.383662	3.010390	-1.086398
52373		-0.816954	0.576026	-0.025259	-0.011914	-70.389733	3.152618	-0.552805
52374		-0.816932	0.576020	-0.023541	-0.016412	-70.375994	3.288899	-0.017525
52375		-0.816971	0.575887	-0.021791	-0.020889	-70.344936	3.420559	0.518473
52376		-0.817025	0.575699	-0.019964	-0.025356	-70.306446	3.544146	1.058980
52377		-0.817082	0.575467	-0.018033	-0.029828	-70.262328	3.657919	1.607124
52378		-0.817106	0.575243	-0.016014	-0.034305	-70.220074	3.763439	2.161680
52379		-0.817094	0.575030	-0.013980	-0.038758	-70.180239	3.865807	2.715038
52380		-0.817033	0.574846	-0.011971	-0.043197	-70.145503	3.969409	3.265328
52381		-0.816885	0.574744	-0.009905	-0.047657	-70.123103	4.069273	3.821167
52382		-0.816617	0.574767	-0.007785	-0.052145	-70.119288	4.166632	4.382688
52383		-0.816233	0.574906	-0.005654	-0.056693	-70.132593	4.267667	4.950118
52384		-0.815784	0.575092	-0.003458	-0.061269	-70.153699	4.365175	5.524251
52385		-0.815330	0.575230	-0.001141	-0.065929	-70.169171	4.456887	6.114592
52386		-0.814879	0.575304	0.001326	-0.070688	-70.177202	4.541069	6.724582
52387		-0.814454	0.575282	0.003908	-0.075499	-70.173652	4.617384	7.347847
52388		-0.814042	0.575187	0.006640	-0.080328	-70.161878	4.680285	7.983157
52389		-0.813627	0.575046	0.009432	-0.085118	-70.145890	4.734818	8.619267
52390		-0.813242	0.574815	0.012309	-0.089856	-70.119856	4.777166	9.256772
52391		-0.812905	0.574472	0.015185	-0.094537	-70.080183	4.814487	9.889708
52392		-0.812570	0.574081	0.018115	-0.099163	-70.036322	4.842401	10.521485
52393		-0.812181	0.573719	0.021080	-0.103751	-69.999008	4.864853	11.152095
52394		-0.811744	0.573386	0.024042	-0.108271	-69.968046	4.883512	11.776067
52395		-0.811301	0.573024	0.026966	-0.112727	-69.934887	4.901064	12.392009
52396		-0.810860	0.572626	0.029878	-0.117103	-69.899006	4.913889	13.000075
52397		-0.810384	0.572263	0.032765	-0.121321	-69.870070	4.919171	13.591598
52398		-0.809844	0.571970	0.035565	-0.125452	-69.852107	4.928062	14.169027
52399		-0.809287	0.571679	0.038324	-0.129496	-69.836053	4.935196	14.735666
52400		-0.808687	0.571425	0.041014	-0.133480	-69.826308	4.945785	15.292159
52401		-0.808050	0.571190	0.043646	-0.137446	-69.820265	4.961108	15.843487
52402		-0.807377	0.570972	0.046248	-0.141401	-69.817852	4.979105	16.391863
52403		-0.806652	0.570794	0.048777	-0.145352	-69.821610	5.004843	16.935318
52404		-0.805867	0.570671	0.051274	-0.149279	-69.833979	5.033501	17.474229
52405		-0.805056	0.570541	0.053757	-0.153225	-69.846783	5.065157	18.014528
52406		-0.804262	0.570342	0.056247	-0.157189	-69.851493	5.096185	18.557778
52407		-0.803477	0.570117	0.058666	-0.161093	-69.852976	5.129631	19.091103
52408		-0.802654	0.569923	0.061045	-0.164950	-69.859617	5.164828	19.617521
52409		-0.801813	0.569746	0.063351	-0.168737	-69.868816	5.202848	20.132782
52410		-0.801022	0.569508	0.065473	-0.172445	-69.867550	5.251491	20.629180
52411		-0.800334	0.569105	0.067496	-0.176149	-69.842408	5.304906	21.120155
52412		-0.799718	0.568566	0.069444	-0.179891	-69.797924	5.364356	21.611013
52413		-0.799111	0.567970	0.071447	-0.183651	-69.747547	5.418361	22.108132
52414		-0.798499	0.567311	0.073516	-0.187492	-69.690627	5.470206	22.618193
52415		-0.797883	0.566586	0.075740	-0.191379	-69.629125	5.509006	23.143632
52416		-0.797274	0.565791	0.078044	-0.195303	-69.560966	5.540863	23.678882
52417		-0.796639	0.564997	0.080369	-0.199211	-69.494874	5.569706	24.214309
52418		-0.795895	0.564267	0.082840	-0.203202	-69.442202	5.592717	24.767504
52419		-0.795246	0.563342	0.085288	-0.207256	-69.363667	5.616018	25.327048
52420		-0.794701	0.562183	0.087873	-0.211375	-69.257886	5.623850	25.903892
52421		-0.794246	0.560815	0.090613	-0.215520	-69.129385	5.612241	26.495378
52422		-0.793871	0.559330	0.093442	-0.219517	-68.989806	5.578116	27.079186
52423		-0.793557	0.557826	0.096249	-0.223233	-68.850140	5.525730	27.634704
52424		-0.793197	0.556478	0.098995	-0.226652	-68.733205	5.463325	28.156389
52425		-0.792668	0.555355	0.101833	-0.229973	-68.651951	5.393421	28.673343
52426		-0.792121	0.554238	0.104631	-0.233274	-68.572543	5.325766	29.186156
