// General information: 
//  MT Manager version: 2022.2.0 
//  XDA version: 2022.2.0 build 7381 rev 124627 built on 2023-07-19
// Device information: 
//  DeviceId: 10B41517
//  ProductCode: MTW2-3A7G6
//  Firmware Version: 4.14.0
//  Hardware Version: 3.0.0
// Device settings: 
//  Filter Profile: human(46.1)
//  Option Flags: Orientation Smoother Disabled, Position/Velocity Smoother Disabled, Continuous Zero Rotation Update Disabled, AHS Disabled, ICC Disabled
// Coordinate system: ENU
PacketCounter	SampleTimeFine	Quat_q0	Quat_q1	Quat_q2	Quat_q3	Roll	Pitch	Yaw
50856		0.031131	-0.574320	0.026791	-0.817600	-13.213379	-69.629295	-166.429357
50857		0.031406	-0.574622	0.026376	-0.817391	-13.180916	-69.672840	-166.405015
50858		0.031723	-0.574922	0.025943	-0.817182	-13.151311	-69.715839	-166.372943
50859		0.032048	-0.575208	0.025476	-0.816982	-13.112881	-69.757481	-166.346217
50860		0.032329	-0.575471	0.024973	-0.816801	-13.054519	-69.797165	-166.340033
50861		0.032585	-0.575707	0.024456	-0.816640	-12.985121	-69.833974	-166.345840
50862		0.032747	-0.575912	0.023899	-0.816506	-12.884300	-69.868585	-166.387540
50863		0.032869	-0.576159	0.023280	-0.816345	-12.763560	-69.910594	-166.447358
50864		0.032915	-0.576398	0.022651	-0.816192	-12.624314	-69.952883	-166.531128
50865		0.032897	-0.576636	0.022034	-0.816041	-12.475723	-69.995814	-166.630505
50866		0.032816	-0.576880	0.021444	-0.815888	-12.322607	-70.040010	-166.741781
50867		0.032660	-0.577111	0.020896	-0.815745	-12.165152	-70.082831	-166.867058
50868		0.032473	-0.577325	0.020368	-0.815614	-12.005182	-70.123290	-166.998972
50869		0.032254	-0.577519	0.019868	-0.815498	-11.844297	-70.160970	-167.136808
50870		0.032003	-0.577669	0.019376	-0.815413	-11.675383	-70.192760	-167.286014
50871		0.031715	-0.577842	0.018870	-0.815314	-11.496791	-70.228310	-167.446745
50872		0.031358	-0.578017	0.018400	-0.815214	-11.314653	-70.264531	-167.619630
50873		0.030945	-0.578212	0.017967	-0.815102	-11.132580	-70.303451	-167.800132
50874		0.030467	-0.578386	0.017550	-0.815005	-10.940105	-70.339967	-167.997603
50875		0.029930	-0.578561	0.017157	-0.814909	-10.742286	-70.376874	-168.207345
50876		0.029337	-0.578737	0.016799	-0.814813	-10.542179	-70.413989	-168.426832
50877		0.028719	-0.578931	0.016456	-0.814705	-10.342408	-70.453434	-168.649346
50878		0.028123	-0.579139	0.016138	-0.814584	-10.153876	-70.493980	-168.860761
50879		0.027520	-0.579360	0.015858	-0.814453	-9.974836	-70.535723	-169.066336
50880		0.026937	-0.579598	0.015608	-0.814307	-9.808596	-70.579138	-169.260068
50881		0.026396	-0.579867	0.015368	-0.814139	-9.654625	-70.625874	-169.438830
50882		0.025909	-0.580130	0.015127	-0.813971	-9.510323	-70.671176	-169.603479
50883		0.025462	-0.580397	0.014886	-0.813800	-9.373122	-70.716310	-169.757659
50884		0.025077	-0.580675	0.014604	-0.813618	-9.237109	-70.762909	-169.902147
50885		0.024797	-0.580975	0.014297	-0.813418	-9.115848	-70.811437	-170.021294
50886		0.024566	-0.581292	0.013947	-0.813205	-8.992630	-70.862270	-170.134815
50887		0.024448	-0.581583	0.013508	-0.813008	-8.864881	-70.909279	-170.236230
50888		0.024382	-0.581830	0.012996	-0.812841	-8.723138	-70.950416	-170.341304
50889		0.024327	-0.582024	0.012433	-0.812713	-8.565464	-70.984659	-170.457357
50890		0.024300	-0.582180	0.011796	-0.812611	-8.389034	-71.014100	-170.583689
50891		0.024291	-0.582329	0.011068	-0.812515	-8.189948	-71.043275	-170.723790
50892		0.024322	-0.582465	0.010248	-0.812427	-7.971172	-71.071249	-170.872719
50893		0.024319	-0.582599	0.009389	-0.812342	-7.733562	-71.099446	-171.040017
50894		0.024289	-0.582729	0.008456	-0.812260	-7.468877	-71.127958	-171.230599
50895		0.024143	-0.582860	0.007473	-0.812180	-7.165020	-71.158034	-171.465732
50896		0.023889	-0.583050	0.006387	-0.812060	-6.812486	-71.197926	-171.750020
50897		0.023589	-0.583255	0.005121	-0.811930	-6.397796	-71.241693	-172.085434
50898		0.023251	-0.583475	0.003689	-0.811790	-5.926151	-71.288582	-172.467315
50899		0.022907	-0.583694	0.002161	-0.811648	-5.423658	-71.335489	-172.872680
50900		0.022482	-0.583903	0.000623	-0.811512	-4.898939	-71.380655	-173.306096
50901		0.022002	-0.584140	-0.000802	-0.811354	-4.394451	-71.428072	-173.733155
50902		0.021416	-0.584476	-0.002019	-0.811126	-3.929590	-71.487347	-174.146319
50903		0.020643	-0.584899	-0.002970	-0.810838	-3.503329	-71.557075	-174.558267
50904		0.019659	-0.585435	-0.003686	-0.810473	-3.101917	-71.641247	-174.981848
50905		0.018476	-0.586081	-0.004219	-0.810031	-2.711393	-71.739745	-175.426016
50906		0.017128	-0.586702	-0.004688	-0.809608	-2.299198	-71.834224	-175.910609
50907		0.015671	-0.587282	-0.005144	-0.809214	-1.861656	-71.922024	-176.430474
50908		0.014134	-0.587807	-0.005620	-0.808858	-1.395389	-72.001392	-176.984000
50909		0.012524	-0.588223	-0.006195	-0.808578	-0.877581	-72.064517	-177.586842
50910		0.010959	-0.588616	-0.006929	-0.808309	-0.317362	-72.123224	-178.215388
50911		0.009524	-0.589018	-0.007832	-0.808026	0.269154	-72.181938	-178.845592
50912		0.008337	-0.589443	-0.008906	-0.807718	0.856335	-72.242465	-179.442203
50913		0.007424	-0.589843	-0.010068	-0.807421	1.413422	-72.298307	-179.979020
50914		0.006758	-0.590225	-0.011136	-0.807134	1.890003	-72.350895	179.577382
50915		0.006275	-0.590582	-0.012012	-0.806864	2.269146	-72.399668	179.230271
50916		0.005915	-0.590895	-0.012632	-0.806628	2.543832	-72.442428	178.976832
50917		0.005612	-0.591149	-0.012978	-0.806438	2.721678	-72.476999	178.802433
50918		0.005512	-0.591306	-0.013145	-0.806321	2.798002	-72.498754	178.731598
50919		0.005577	-0.591399	-0.013152	-0.806252	2.786825	-72.512140	178.748646
50920		0.005792	-0.591444	-0.013023	-0.806220	2.699717	-72.519449	178.842820
50921		0.006067	-0.591399	-0.012705	-0.806256	2.539112	-72.514383	178.999960
50922		0.006346	-0.591249	-0.012136	-0.806373	2.299465	-72.494528	179.215756
50923		0.006633	-0.591012	-0.011371	-0.806555	1.997275	-72.462235	179.478908
50924		0.006906	-0.590685	-0.010499	-0.806804	1.666156	-72.416879	179.760917
50925		0.007161	-0.590308	-0.009527	-0.807090	1.309599	-72.363826	-179.941190
50926		0.007344	-0.589889	-0.008483	-0.807407	0.948970	-72.304386	-179.651003
50927		0.007441	-0.589480	-0.007326	-0.807715	0.575264	-72.245830	-179.364165
50928		0.007498	-0.589089	-0.006137	-0.808010	0.203100	-72.189201	-179.084798
50929		0.007519	-0.588701	-0.004971	-0.808301	-0.152525	-72.132624	-178.822927
50930		0.007465	-0.588354	-0.003803	-0.808560	-0.490583	-72.081678	-178.585138
50931		0.007357	-0.588037	-0.002623	-0.808796	-0.819250	-72.034580	-178.362016
50932		0.007253	-0.587753	-0.001480	-0.809006	-1.136414	-71.992083	-178.147122
50933		0.007220	-0.587521	-0.000389	-0.809177	-1.453035	-71.956591	-177.922733
50934		0.007234	-0.587293	0.000652	-0.809342	-1.763826	-71.921496	-177.696131
50935		0.007355	-0.587070	0.001608	-0.809501	-2.071623	-71.886736	-177.456858
50936		0.007517	-0.586846	0.002545	-0.809659	-2.381848	-71.851613	-177.210165
50937		0.007724	-0.586630	0.003444	-0.809811	-2.689224	-71.817122	-176.959557
50938		0.007957	-0.586405	0.004309	-0.809968	-2.990834	-71.781140	-176.709848
50939		0.008202	-0.586205	0.005159	-0.810105	-3.290157	-71.748397	-176.460063
50940		0.008428	-0.586002	0.005954	-0.810244	-3.568368	-71.715263	-176.228597
50941		0.008598	-0.585872	0.006772	-0.810330	-3.842310	-71.692184	-176.007775
50942		0.008668	-0.585770	0.007540	-0.810396	-4.080667	-71.673587	-175.826709
50943		0.008640	-0.585681	0.008311	-0.810453	-4.299378	-71.657120	-175.673633
50944		0.008479	-0.585572	0.009063	-0.810526	-4.482948	-71.638509	-175.564991
50945		0.008179	-0.585464	0.009836	-0.810597	-4.643217	-71.620773	-175.492780
50946		0.007710	-0.585376	0.010635	-0.810655	-4.775455	-71.606691	-175.464610
50947		0.007071	-0.585298	0.011463	-0.810706	-4.880763	-71.594849	-175.479776
50948		0.006284	-0.585196	0.012320	-0.810774	-4.962395	-71.580543	-175.533012
50949		0.005337	-0.585087	0.013225	-0.810845	-5.024084	-71.565989	-175.623497
50950		0.004222	-0.584941	0.014229	-0.810940	-5.078177	-71.547134	-175.743250
50951		0.002943	-0.584782	0.015296	-0.811041	-5.115787	-71.527253	-175.898260
50952		0.001523	-0.584584	0.016461	-0.811164	-5.151394	-71.502593	-176.075017
50953		-0.000021	-0.584366	0.017675	-0.811297	-5.174858	-71.475986	-176.277957
50954		-0.001684	-0.584100	0.018893	-0.811460	-5.173225	-71.443711	-176.516195
50955		-0.003417	-0.583748	0.020096	-0.811679	-5.150540	-71.400129	-176.780147
50956		-0.005286	-0.583329	0.021312	-0.811939	-5.101994	-71.348431	-177.082230
50957		-0.007205	-0.582823	0.022566	-0.812253	-5.052799	-71.284937	-177.392199
50958		-0.009199	-0.582233	0.023822	-0.812621	-4.988041	-71.210409	-177.724246
50959		-0.011251	-0.581557	0.025040	-0.813042	-4.899730	-71.124673	-178.081591
50960		-0.013298	-0.580787	0.026156	-0.813527	-4.782851	-71.026118	-178.458774
50961		-0.015352	-0.579935	0.027137	-0.814066	-4.627346	-70.916565	-178.864295
50962		-0.017437	-0.578998	0.027999	-0.814661	-4.433567	-70.795663	-179.300994
50963		-0.019581	-0.578060	0.028777	-0.815252	-4.208090	-70.674794	-179.767498
50964		-0.021732	-0.577210	0.029453	-0.815775	-3.958045	-70.566348	179.749289
50965		-0.023918	-0.576461	0.029984	-0.816224	-3.665685	-70.471827	179.232749
50966		-0.026045	-0.575853	0.030388	-0.816573	-3.354412	-70.396165	178.712665
50967		-0.028211	-0.575388	0.030697	-0.816818	-3.012977	-70.339951	178.167214
50968		-0.030409	-0.574988	0.031002	-0.817009	-2.666592	-70.292317	177.614391
50969		-0.032611	-0.574659	0.031222	-0.817147	-2.297943	-70.253664	177.046054
50970		-0.034811	-0.574381	0.031336	-0.817247	-1.901571	-70.220839	176.458928
50971		-0.036965	-0.574183	0.031313	-0.817292	-1.477328	-70.197508	175.858939
50972		-0.039028	-0.574080	0.031007	-0.817281	-0.992466	-70.184499	175.229314
50973		-0.041019	-0.574130	0.030518	-0.817166	-0.469375	-70.190216	174.582539
50974		-0.042974	-0.574286	0.029897	-0.816979	0.086147	-70.208184	173.917304
50975		-0.044914	-0.574543	0.029211	-0.816719	0.660218	-70.237766	173.240187
50976		-0.046804	-0.574883	0.028513	-0.816398	1.232544	-70.277172	172.570097
50977		-0.048540	-0.575373	0.027824	-0.815975	1.779585	-70.335834	171.937359
50978		-0.050001	-0.576021	0.027190	-0.815451	2.267092	-70.416289	171.382473
50979		-0.051139	-0.576772	0.026668	-0.814867	2.668064	-70.512056	170.931731
50980		-0.051987	-0.577584	0.026310	-0.814249	2.972479	-70.618622	170.587979
50981		-0.052573	-0.578359	0.026148	-0.813667	3.170670	-70.722687	170.355941
50982		-0.052817	-0.579005	0.026008	-0.813196	3.289798	-70.810394	170.229040
50983		-0.052725	-0.579552	0.025729	-0.812821	3.376322	-70.883925	170.173787
50984		-0.052386	-0.580018	0.025151	-0.812528	3.494061	-70.943517	170.132038
50985		-0.051966	-0.580449	0.024363	-0.812271	3.653172	-70.996156	170.072797
50986		-0.051591	-0.580826	0.023468	-0.812052	3.850049	-71.039667	169.980839
50987		-0.051232	-0.581171	0.022473	-0.811856	4.077653	-71.077411	169.865022
50988		-0.050822	-0.581449	0.021340	-0.811714	4.330941	-71.104160	169.738816
50989		-0.050329	-0.581610	0.019968	-0.811664	4.629766	-71.111991	169.593454
50990		-0.049781	-0.581601	0.018362	-0.811742	4.974148	-71.093380	169.426138
50991		-0.049274	-0.581447	0.016686	-0.811920	5.337824	-71.053170	169.241633
50992		-0.048885	-0.581183	0.015009	-0.812164	5.718023	-70.996765	169.030868
50993		-0.048575	-0.580901	0.013383	-0.812413	6.097286	-70.937623	168.810404
50994		-0.048244	-0.580603	0.011762	-0.812671	6.467855	-70.876307	168.599884
50995		-0.047920	-0.580325	0.010214	-0.812910	6.819091	-70.818468	168.402261
50996		-0.047614	-0.580093	0.008776	-0.813110	7.145052	-70.768372	168.219400
50997		-0.047374	-0.579914	0.007586	-0.813263	7.417290	-70.728491	168.064499
50998		-0.047224	-0.579799	0.006632	-0.813362	7.645351	-70.699945	167.927066
50999		-0.047111	-0.579727	0.005926	-0.813426	7.814540	-70.680511	167.825053
51000		-0.047079	-0.579675	0.005407	-0.813469	7.948923	-70.665859	167.735911
51001		-0.047157	-0.579622	0.005070	-0.813504	8.054074	-70.652697	167.652033
51002		-0.047384	-0.579540	0.004903	-0.813550	8.139575	-70.636654	167.561493
51003		-0.047721	-0.579443	0.004862	-0.813600	8.210710	-70.619149	167.465848
51004		-0.048149	-0.579283	0.004890	-0.813689	8.275543	-70.593081	167.363339
51005		-0.048673	-0.579048	0.004973	-0.813824	8.338358	-70.556568	167.250334
51006		-0.049291	-0.578683	0.005117	-0.814045	8.392719	-70.502050	167.132984
51007		-0.049988	-0.578176	0.005359	-0.814362	8.424233	-70.428537	167.023622
51008		-0.050739	-0.577478	0.005754	-0.814807	8.409542	-70.330734	166.943394
51009		-0.051460	-0.576598	0.006311	-0.815381	8.330635	-70.210766	166.916228
51010		-0.052036	-0.575514	0.006950	-0.816105	8.186925	-70.065525	166.958867
51011		-0.052353	-0.574328	0.007619	-0.816914	7.979992	-69.909383	167.083396
51012		-0.052430	-0.573023	0.008276	-0.817819	7.725292	-69.739059	167.276343
51013		-0.052235	-0.571624	0.008866	-0.818803	7.435295	-69.557272	167.532332
51014		-0.051681	-0.570245	0.009246	-0.819795	7.140991	-69.377887	167.839574
51015		-0.050563	-0.569016	0.009197	-0.820719	6.870394	-69.217577	168.205071
51016		-0.048911	-0.568046	0.008598	-0.821497	6.667712	-69.089287	168.592393
51017		-0.046903	-0.567214	0.007451	-0.822200	6.554968	-68.975297	168.964532
51018		-0.044815	-0.566345	0.005847	-0.822928	6.547179	-68.851252	169.275888
51019		-0.042926	-0.565462	0.003946	-0.823647	6.653068	-68.720415	169.481775
51020		-0.041271	-0.564556	0.001833	-0.824360	6.853995	-68.582824	169.590889
51021		-0.039686	-0.563538	-0.000348	-0.825136	7.078278	-68.429116	169.676445
51022		-0.037959	-0.562410	-0.002540	-0.825983	7.274114	-68.262346	169.803267
51023		-0.036123	-0.561244	-0.004594	-0.826849	7.414358	-68.093837	169.983262
51024		-0.034236	-0.560200	-0.006232	-0.827626	7.449061	-67.948303	170.238963
51025		-0.032388	-0.559347	-0.007378	-0.828268	7.378998	-67.834855	170.555821
51026		-0.030563	-0.558672	-0.008162	-0.828785	7.233709	-67.749774	170.916313
51027		-0.028760	-0.558175	-0.008703	-0.829179	7.042178	-67.691443	171.301252
51028		-0.026947	-0.557816	-0.009224	-0.829475	6.852293	-67.652236	171.683867
51029		-0.025232	-0.557576	-0.009838	-0.829684	6.708310	-67.627205	172.020147
51030		-0.023637	-0.557428	-0.010591	-0.829821	6.623333	-67.612755	172.299014
51031		-0.022206	-0.557302	-0.011454	-0.829934	6.594254	-67.598921	172.517597
51032		-0.020966	-0.557131	-0.012413	-0.830067	6.619181	-67.576872	172.674307
51033		-0.019860	-0.556904	-0.013441	-0.830230	6.681248	-67.545637	172.788499
51034		-0.018823	-0.556570	-0.014466	-0.830462	6.749841	-67.499301	172.890270
51035		-0.017882	-0.556200	-0.015345	-0.830714	6.796596	-67.448917	172.993741
51036		-0.017070	-0.555819	-0.015985	-0.830974	6.805543	-67.398036	173.104810
51037		-0.016402	-0.555465	-0.016349	-0.831218	6.771083	-67.351977	173.224551
51038		-0.015828	-0.555158	-0.016492	-0.831431	6.699800	-67.313466	173.355089
51039		-0.015362	-0.554893	-0.016476	-0.831617	6.609141	-67.281052	173.482904
51040		-0.014941	-0.554654	-0.016403	-0.831785	6.513285	-67.252179	173.607623
51041		-0.014492	-0.554437	-0.016345	-0.831939	6.417587	-67.226348	173.735576
51042		-0.014009	-0.554224	-0.016351	-0.832089	6.332245	-67.200883	173.861292
51043		-0.013519	-0.554018	-0.016403	-0.832233	6.257837	-67.175993	173.980579
51044		-0.013041	-0.553805	-0.016443	-0.832382	6.182222	-67.150094	174.099061
51045		-0.012599	-0.553584	-0.016413	-0.832536	6.095195	-67.123344	174.220112
51046		-0.012143	-0.553351	-0.016310	-0.832700	5.988001	-67.095482	174.356441
51047		-0.011716	-0.553135	-0.016194	-0.832852	5.883225	-67.069707	174.486953
51048		-0.011273	-0.552995	-0.016082	-0.832953	5.779371	-67.054425	174.618240
51049		-0.010819	-0.552954	-0.015990	-0.832988	5.682298	-67.052493	174.745221
51050		-0.010375	-0.553039	-0.015936	-0.832938	5.599995	-67.067495	174.859836
51051		-0.009952	-0.553231	-0.015895	-0.832817	5.527334	-67.096800	174.963993
51052		-0.009581	-0.553478	-0.015846	-0.832658	5.462841	-67.133402	175.055068
51053		-0.009260	-0.553750	-0.015706	-0.832483	5.384825	-67.173650	175.148066
51054		-0.009006	-0.554063	-0.015482	-0.832282	5.297758	-67.219372	175.237568
51055		-0.008848	-0.554369	-0.015176	-0.832086	5.205625	-67.264102	175.317375
51056		-0.008778	-0.554683	-0.014799	-0.831884	5.110272	-67.309783	175.387338
51057		-0.008784	-0.554995	-0.014353	-0.831683	5.010100	-67.355039	175.450143
51058		-0.008866	-0.555289	-0.013888	-0.831494	4.917007	-67.397391	175.497991
51059		-0.009002	-0.555579	-0.013413	-0.831307	4.829800	-67.438975	175.534603
51060		-0.009188	-0.555886	-0.012953	-0.831107	4.754903	-67.482590	175.556151
51061		-0.009412	-0.556171	-0.012462	-0.830921	4.677954	-67.523131	175.574032
51062		-0.009700	-0.556446	-0.011957	-0.830741	4.607535	-67.562029	175.578880
51063		-0.010041	-0.556684	-0.011419	-0.830585	4.536877	-67.595747	175.576904
51064		-0.010444	-0.556893	-0.010805	-0.830448	4.456636	-67.625599	175.573186
51065		-0.010924	-0.557030	-0.010073	-0.830359	4.357637	-67.645836	175.572078
51066		-0.011481	-0.557091	-0.009225	-0.830321	4.240511	-67.655845	175.573186
51067		-0.012127	-0.557089	-0.008257	-0.830323	4.106662	-67.657409	175.573629
51068		-0.012888	-0.557066	-0.007146	-0.830337	3.955901	-67.656549	175.569842
51069		-0.013730	-0.557025	-0.005983	-0.830361	3.804932	-67.653086	175.555214
51070		-0.014675	-0.556990	-0.004742	-0.830376	3.652408	-67.650744	175.527248
51071		-0.015689	-0.556974	-0.003485	-0.830374	3.507516	-67.650978	175.484503
51072		-0.016753	-0.557006	-0.002257	-0.830337	3.379830	-67.657632	175.422906
51073		-0.017838	-0.557104	-0.001116	-0.830250	3.279046	-67.673140	175.339839
51074		-0.018953	-0.557224	-0.000081	-0.830146	3.210152	-67.691238	175.231256
51075		-0.020075	-0.557374	0.000913	-0.830018	3.153557	-67.713288	175.113027
51076		-0.021221	-0.557516	0.001868	-0.829893	3.110675	-67.734253	174.982525
51077		-0.022383	-0.557656	0.002821	-0.829766	3.071321	-67.755001	174.847271
51078		-0.023502	-0.557774	0.003768	-0.829652	3.025450	-67.773089	174.722510
51079		-0.024548	-0.557876	0.004666	-0.829548	2.979254	-67.789105	174.608232
51080		-0.025524	-0.557985	0.005505	-0.829440	2.936529	-67.806140	174.501073
51081		-0.026427	-0.558098	0.006286	-0.829331	2.896203	-67.823720	174.402477
51082		-0.027247	-0.558233	0.007023	-0.829207	2.853502	-67.844552	174.316633
51083		-0.027980	-0.558400	0.007671	-0.829064	2.819156	-67.869530	174.237109
51084		-0.028673	-0.558581	0.008251	-0.828913	2.795724	-67.896237	174.155446
51085		-0.029282	-0.558792	0.008767	-0.828744	2.775073	-67.926889	174.083404
51086		-0.029865	-0.559009	0.009219	-0.828572	2.766225	-67.958070	174.006935
51087		-0.030432	-0.559243	0.009671	-0.828389	2.755421	-67.991682	173.933742
51088		-0.030995	-0.559504	0.010125	-0.828186	2.744197	-68.029213	173.861172
51089		-0.031549	-0.559779	0.010535	-0.827974	2.743239	-68.068290	173.782821
51090		-0.032058	-0.560068	0.010894	-0.827755	2.747733	-68.109131	173.706901
51091		-0.032545	-0.560337	0.011189	-0.827550	2.764461	-68.146873	173.625812
51092		-0.033017	-0.560598	0.011474	-0.827350	2.781101	-68.183532	173.546914
51093		-0.033470	-0.560865	0.011764	-0.827147	2.793761	-68.221201	173.473161
51094		-0.033956	-0.561087	0.012015	-0.826973	2.820457	-68.252106	173.385833
51095		-0.034414	-0.561280	0.012292	-0.826819	2.835145	-68.279478	173.310530
51096		-0.034848	-0.561410	0.012557	-0.826708	2.847054	-68.298091	173.241111
51097		-0.035229	-0.561488	0.012806	-0.826636	2.851941	-68.309496	173.184232
51098		-0.035550	-0.561524	0.013038	-0.826594	2.849802	-68.315291	173.140811
51099		-0.035817	-0.561551	0.013263	-0.826560	2.839562	-68.320016	173.110450
51100		-0.035990	-0.561553	0.013445	-0.826549	2.823186	-68.321127	173.097529
51101		-0.036120	-0.561552	0.013589	-0.826541	2.809071	-68.321851	173.089035
51102		-0.036210	-0.561540	0.013690	-0.826544	2.798414	-68.320667	173.083943
51103		-0.036204	-0.561529	0.013750	-0.826550	2.781646	-68.319697	173.096206
51104		-0.036129	-0.561521	0.013725	-0.826559	2.774845	-68.318679	173.111231
51105		-0.035958	-0.561531	0.013606	-0.826562	2.775635	-68.319528	173.134414
51106		-0.035721	-0.561540	0.013427	-0.826569	2.780652	-68.320197	173.163802
51107		-0.035455	-0.561575	0.013208	-0.826561	2.791238	-68.324012	173.193235
51108		-0.035129	-0.561629	0.012978	-0.826541	2.794862	-68.330705	173.235581
51109		-0.034777	-0.561726	0.012758	-0.826494	2.792799	-68.343494	173.284911
51110		-0.034409	-0.561851	0.012500	-0.826428	2.798468	-68.359959	173.331019
51111		-0.034013	-0.562022	0.012228	-0.826332	2.804150	-68.382688	173.380692
51112		-0.033599	-0.562225	0.011944	-0.826215	2.810790	-68.409906	173.431775
51113		-0.033190	-0.562437	0.011646	-0.826092	2.822038	-68.438277	173.479016
51114		-0.032785	-0.562658	0.011343	-0.825962	2.835434	-68.467763	173.524323
51115		-0.032379	-0.562880	0.011040	-0.825830	2.848715	-68.497584	173.569685
51116		-0.031985	-0.563113	0.010748	-0.825691	2.861510	-68.528828	173.613591
51117		-0.031567	-0.563373	0.010393	-0.825534	2.887102	-68.563523	173.652050
51118		-0.031159	-0.563639	0.010022	-0.825373	2.918940	-68.598871	173.684710
51119		-0.030815	-0.563899	0.009667	-0.825212	2.957546	-68.633387	173.703900
51120		-0.030491	-0.564121	0.009364	-0.825076	2.985282	-68.662915	173.728035
51121		-0.030197	-0.564339	0.009082	-0.824941	3.012699	-68.692043	173.748329
51122		-0.029916	-0.564546	0.008804	-0.824812	3.041117	-68.719703	173.766203
51123		-0.029624	-0.564775	0.008517	-0.824669	3.070710	-68.750272	173.784469
51124		-0.029273	-0.565036	0.008189	-0.824506	3.101105	-68.785257	173.810256
51125		-0.028943	-0.565315	0.007815	-0.824330	3.148251	-68.822275	173.821380
51126		-0.028571	-0.565629	0.007432	-0.824131	3.190846	-68.864370	173.841223
51127		-0.028178	-0.565965	0.007018	-0.823918	3.238996	-68.909447	173.859823
51128		-0.027791	-0.566287	0.006598	-0.823713	3.289239	-68.952424	173.876339
51129		-0.027393	-0.566612	0.006171	-0.823506	3.339498	-68.995966	173.894250
51130		-0.026984	-0.566957	0.005727	-0.823285	3.392788	-69.042145	173.911474
51131		-0.026549	-0.567296	0.005241	-0.823069	3.452491	-69.087386	173.927867
51132		-0.026116	-0.567663	0.004723	-0.822833	3.521718	-69.136278	173.937251
51133		-0.025638	-0.568052	0.004201	-0.822582	3.584965	-69.188577	173.956632
51134		-0.025231	-0.568429	0.003684	-0.822337	3.659677	-69.238932	173.958249
51135		-0.024820	-0.568826	0.003199	-0.822077	3.725578	-69.292275	173.966303
51136		-0.024448	-0.569196	0.002745	-0.821834	3.790218	-69.342020	173.969942
51137		-0.024110	-0.569537	0.002334	-0.821609	3.848448	-69.387923	173.973584
51138		-0.023796	-0.569846	0.001960	-0.821405	3.900493	-69.429622	173.978375
51139		-0.023519	-0.570099	0.001620	-0.821238	3.948494	-69.463627	173.981262
51140		-0.023250	-0.570277	0.001285	-0.821123	3.994145	-69.487174	173.985396
51141		-0.023013	-0.570386	0.000955	-0.821054	4.042025	-69.501189	173.984329
51142		-0.022859	-0.570450	0.000692	-0.821014	4.085952	-69.508862	173.974702
51143		-0.022756	-0.570482	0.000540	-0.820995	4.108713	-69.512669	173.972939
51144		-0.022694	-0.570480	0.000397	-0.820998	4.135376	-69.511653	173.963217
51145		-0.022618	-0.570464	0.000215	-0.821011	4.169338	-69.508459	173.950442
51146		-0.022522	-0.570449	0.000020	-0.821024	4.203486	-69.505481	173.940314
51147		-0.022400	-0.570453	-0.000201	-0.821025	4.239989	-69.504977	173.932012
51148		-0.022247	-0.570483	-0.000442	-0.821008	4.277065	-69.508211	173.927399
51149		-0.022097	-0.570502	-0.000705	-0.820999	4.320328	-69.509681	173.918124
51150		-0.021950	-0.570543	-0.000933	-0.820974	4.355419	-69.514532	173.913968
51151		-0.021816	-0.570589	-0.001162	-0.820945	4.393591	-69.519913	173.905639
51152		-0.021687	-0.570648	-0.001353	-0.820907	4.422829	-69.527360	173.902770
51153		-0.021565	-0.570713	-0.001550	-0.820865	4.455303	-69.535610	173.896616
51154		-0.021440	-0.570799	-0.001764	-0.820808	4.492525	-69.546608	173.887406
51155		-0.021319	-0.570874	-0.001983	-0.820759	4.531644	-69.556058	173.876271
51156		-0.021160	-0.570974	-0.002223	-0.820692	4.569758	-69.569129	173.871061
51157		-0.021057	-0.571082	-0.002457	-0.820620	4.617443	-69.582893	173.851153
51158		-0.020977	-0.571184	-0.002644	-0.820549	4.656516	-69.596243	173.834083
51159		-0.020957	-0.571325	-0.002823	-0.820451	4.706160	-69.614569	173.800840
51160		-0.020983	-0.571472	-0.002936	-0.820348	4.746772	-69.633933	173.767476
51161		-0.021023	-0.571637	-0.002992	-0.820232	4.775619	-69.656319	173.740041
51162		-0.021102	-0.571797	-0.003012	-0.820118	4.801788	-69.677913	173.709003
51163		-0.021202	-0.571960	-0.002973	-0.820002	4.816433	-69.700307	173.682946
51164		-0.021289	-0.572096	-0.002935	-0.819905	4.827606	-69.718939	173.661584
51165		-0.021383	-0.572230	-0.002924	-0.819809	4.847339	-69.737169	173.633224
51166		-0.021485	-0.572360	-0.002923	-0.819716	4.871527	-69.754589	173.600644
51167		-0.021549	-0.572512	-0.002962	-0.819608	4.899882	-69.775144	173.570213
51168		-0.021590	-0.572689	-0.003030	-0.819483	4.933274	-69.798958	173.539141
51169		-0.021603	-0.572874	-0.003102	-0.819353	4.962393	-69.824093	173.514958
51170		-0.021584	-0.573073	-0.003165	-0.819214	4.983827	-69.851419	173.500343
51171		-0.021579	-0.573271	-0.003180	-0.819075	4.994698	-69.878889	173.491072
51172		-0.021563	-0.573472	-0.003208	-0.818935	5.007471	-69.906673	173.482056
51173		-0.021539	-0.573685	-0.003189	-0.818787	5.006058	-69.936627	173.484016
51174		-0.021539	-0.573895	-0.003182	-0.818639	5.012425	-69.965978	173.477109
51175		-0.021546	-0.574126	-0.003177	-0.818477	5.021711	-69.998098	173.466805
51176		-0.021562	-0.574352	-0.003183	-0.818318	5.035476	-70.029418	173.452351
51177		-0.021573	-0.574565	-0.003227	-0.818168	5.058305	-70.058652	173.432329
51178		-0.021589	-0.574762	-0.003278	-0.818029	5.083297	-70.085686	173.410235
51179		-0.021630	-0.574946	-0.003319	-0.817899	5.110120	-70.110636	173.383488
51180		-0.021651	-0.575121	-0.003336	-0.817775	5.125985	-70.134823	173.367384
51181		-0.021688	-0.575268	-0.003332	-0.817671	5.137883	-70.155074	173.352110
51182		-0.021698	-0.575395	-0.003332	-0.817581	5.145218	-70.172734	173.343950
51183		-0.021701	-0.575503	-0.003338	-0.817505	5.152059	-70.187696	173.337454
51184		-0.021697	-0.575600	-0.003365	-0.817436	5.162771	-70.201095	173.329344
51185		-0.021679	-0.575670	-0.003418	-0.817387	5.176736	-70.210519	173.321253
51186		-0.021641	-0.575701	-0.003501	-0.817367	5.193505	-70.214321	173.314442
51187		-0.021577	-0.575705	-0.003634	-0.817365	5.217980	-70.214192	173.306132
51188		-0.021522	-0.575667	-0.003784	-0.817393	5.246846	-70.208016	173.294093
51189		-0.021441	-0.575589	-0.003954	-0.817448	5.274829	-70.196369	173.286779
51190		-0.021343	-0.575474	-0.004120	-0.817531	5.296715	-70.179536	173.286582
51191		-0.021230	-0.575318	-0.004283	-0.817643	5.313266	-70.157208	173.292635
51192		-0.021103	-0.575134	-0.004464	-0.817775	5.330560	-70.130876	173.300602
51193		-0.020974	-0.574942	-0.004622	-0.817912	5.340914	-70.103691	173.313829
51194		-0.020854	-0.574729	-0.004771	-0.818064	5.349933	-70.073610	173.326908
51195		-0.020756	-0.574508	-0.004909	-0.818221	5.359727	-70.042368	173.336449
51196		-0.020661	-0.574293	-0.005010	-0.818374	5.359923	-70.012201	173.352349
51197		-0.020538	-0.574089	-0.005156	-0.818519	5.367859	-69.983386	173.366509
51198		-0.020419	-0.573852	-0.005323	-0.818687	5.380883	-69.949847	173.376872
51199		-0.020245	-0.573639	-0.005518	-0.818839	5.392041	-69.919818	173.396113
51200		-0.020058	-0.573425	-0.005739	-0.818992	5.407710	-69.889549	173.413919
51201		-0.019846	-0.573214	-0.005964	-0.819144	5.420051	-69.859666	173.437520
51202		-0.019645	-0.572994	-0.006194	-0.819301	5.435121	-69.828651	173.457867
51203		-0.019452	-0.572782	-0.006396	-0.819452	5.444717	-69.798842	173.480716
51204		-0.019274	-0.572557	-0.006587	-0.819612	5.453683	-69.767169	173.502040
51205		-0.019081	-0.572348	-0.006779	-0.819760	5.460653	-69.737962	173.526772
51206		-0.018884	-0.572127	-0.006967	-0.819918	5.465402	-69.707063	173.553686
51207		-0.018675	-0.571934	-0.007161	-0.820056	5.470539	-69.680023	173.581643
51208		-0.018468	-0.571752	-0.007350	-0.820186	5.475509	-69.654654	173.609207
51209		-0.018265	-0.571583	-0.007544	-0.820306	5.482726	-69.631006	173.634612
51210		-0.018071	-0.571454	-0.007705	-0.820399	5.484844	-69.613203	173.661726
51211		-0.017884	-0.571349	-0.007876	-0.820475	5.491515	-69.598494	173.684546
51212		-0.017678	-0.571280	-0.008049	-0.820526	5.496825	-69.588904	173.710373
51213		-0.017489	-0.571239	-0.008204	-0.820557	5.501358	-69.583301	173.734192
51214		-0.017305	-0.571216	-0.008369	-0.820574	5.510661	-69.580188	173.753642
51215		-0.017105	-0.571201	-0.008513	-0.820588	5.511334	-69.578346	173.781307
51216		-0.016913	-0.571182	-0.008668	-0.820604	5.516394	-69.575726	173.804818
51217		-0.016726	-0.571172	-0.008820	-0.820613	5.521975	-69.574453	173.827106
51218		-0.016539	-0.571160	-0.008973	-0.820623	5.527688	-69.572886	173.849346
51219		-0.016355	-0.571164	-0.009120	-0.820623	5.532950	-69.573595	173.871330
51220		-0.016189	-0.571185	-0.009253	-0.820609	5.538629	-69.576744	173.890298
51221		-0.016009	-0.571242	-0.009372	-0.820572	5.539315	-69.584884	173.914194
51222		-0.015851	-0.571276	-0.009458	-0.820551	5.534375	-69.590063	173.939277
51223		-0.015732	-0.571318	-0.009546	-0.820523	5.537366	-69.596023	173.953344
51224		-0.015612	-0.571364	-0.009615	-0.820492	5.535223	-69.602835	173.971014
51225		-0.015510	-0.571389	-0.009694	-0.820476	5.538422	-69.606290	173.982740
51226		-0.015450	-0.571397	-0.009750	-0.820471	5.542527	-69.607430	173.988152
51227		-0.015399	-0.571412	-0.009777	-0.820460	5.541144	-69.609743	173.996012
51228		-0.015375	-0.571410	-0.009781	-0.820462	5.537447	-69.609554	174.001966
51229		-0.015364	-0.571418	-0.009781	-0.820457	5.535856	-69.610788	174.004501
51230		-0.015352	-0.571425	-0.009783	-0.820453	5.534404	-69.611738	174.007101
51231		-0.015365	-0.571436	-0.009785	-0.820444	5.537678	-69.613263	174.002911
51232		-0.015385	-0.571434	-0.009775	-0.820446	5.538764	-69.612836	173.999406
51233		-0.015422	-0.571416	-0.009757	-0.820458	5.539888	-69.610182	173.993711
51234		-0.015456	-0.571399	-0.009730	-0.820469	5.538494	-69.607810	173.990050
51235		-0.015518	-0.571384	-0.009695	-0.820479	5.540161	-69.605651	173.980419
51236		-0.015567	-0.571379	-0.009672	-0.820482	5.542777	-69.604779	173.971948
51237		-0.015590	-0.571393	-0.009640	-0.820472	5.539034	-69.606809	173.971092
51238		-0.015607	-0.571401	-0.009618	-0.820466	5.536508	-69.607891	173.970413
51239		-0.015651	-0.571408	-0.009582	-0.820461	5.535308	-69.608813	173.965016
51240		-0.015682	-0.571421	-0.009534	-0.820452	5.529002	-69.610865	173.964844
51241		-0.015715	-0.571420	-0.009483	-0.820452	5.521213	-69.610859	173.965749
51242		-0.015738	-0.571419	-0.009439	-0.820453	5.513668	-69.610841	173.967817
51243		-0.015765	-0.571410	-0.009391	-0.820460	5.505232	-69.609801	173.969995
51244		-0.015804	-0.571425	-0.009343	-0.820449	5.500559	-69.611936	173.967523
51245		-0.015864	-0.571437	-0.009298	-0.820440	5.499953	-69.613624	173.959522
51246		-0.015948	-0.571439	-0.009225	-0.820438	5.496109	-69.613779	173.950453
51247		-0.016013	-0.571446	-0.009149	-0.820432	5.487837	-69.614939	173.947059
51248		-0.016093	-0.571440	-0.009061	-0.820436	5.479023	-69.614224	173.942063
51249		-0.016175	-0.571430	-0.008975	-0.820442	5.470977	-69.612878	173.936309
51250		-0.016261	-0.571411	-0.008893	-0.820455	5.464130	-69.610306	173.929293
51251		-0.016351	-0.571398	-0.008818	-0.820462	5.460352	-69.608489	173.919420
51252		-0.016449	-0.571385	-0.008745	-0.820471	5.458353	-69.606452	173.907371
51253		-0.016545	-0.571379	-0.008667	-0.820473	5.455219	-69.605671	173.896230
51254		-0.016625	-0.571370	-0.008590	-0.820479	5.449043	-69.604397	173.889429
51255		-0.016723	-0.571379	-0.008507	-0.820472	5.445579	-69.605589	173.877989
51256		-0.016823	-0.571369	-0.008423	-0.820478	5.441017	-69.604152	173.867361
51257		-0.016934	-0.571349	-0.008344	-0.820490	5.439776	-69.601234	173.852955
51258		-0.017028	-0.571311	-0.008270	-0.820516	5.435835	-69.595869	173.843126
51259		-0.017123	-0.571268	-0.008198	-0.820544	5.432651	-69.589848	173.832538
51260		-0.017206	-0.571211	-0.008139	-0.820582	5.430060	-69.581861	173.823377
51261		-0.017285	-0.571170	-0.008056	-0.820610	5.420992	-69.576215	173.819146
51262		-0.017347	-0.571140	-0.007994	-0.820630	5.414527	-69.572208	173.815378
51263		-0.017415	-0.571117	-0.007937	-0.820645	5.411169	-69.568960	173.808485
51264		-0.017479	-0.571105	-0.007876	-0.820653	5.406098	-69.567284	173.803211
51265		-0.017549	-0.571099	-0.007804	-0.820656	5.399768	-69.566580	173.797892
51266		-0.017608	-0.571093	-0.007758	-0.820660	5.398019	-69.565657	173.790929
51267		-0.017665	-0.571071	-0.007725	-0.820674	5.399025	-69.562472	173.782586
51268		-0.017708	-0.571039	-0.007680	-0.820696	5.393611	-69.558070	173.780703
51269		-0.017740	-0.571000	-0.007634	-0.820723	5.385787	-69.552821	173.782148
51270		-0.017776	-0.570946	-0.007595	-0.820760	5.380097	-69.545419	173.781619
51271		-0.017803	-0.570887	-0.007523	-0.820801	5.363348	-69.537575	173.790178
51272		-0.017847	-0.570821	-0.007472	-0.820847	5.355319	-69.528485	173.790363
51273		-0.017903	-0.570756	-0.007396	-0.820891	5.342727	-69.519639	173.792148
51274		-0.017961	-0.570702	-0.007316	-0.820928	5.330027	-69.512460	173.793402
51275		-0.018028	-0.570649	-0.007245	-0.820964	5.321361	-69.505116	173.790781
51276		-0.018073	-0.570607	-0.007159	-0.820993	5.305103	-69.499713	173.796277
51277		-0.018108	-0.570563	-0.007099	-0.821024	5.293972	-69.493734	173.799502
51278		-0.018138	-0.570545	-0.007054	-0.821035	5.286739	-69.491479	173.800550
51279		-0.018156	-0.570522	-0.006993	-0.821052	5.272752	-69.488570	173.807999
51280		-0.018176	-0.570514	-0.006918	-0.821057	5.255992	-69.487926	173.816954
51281		-0.018206	-0.570503	-0.006845	-0.821065	5.241617	-69.486724	173.822781
51282		-0.018244	-0.570491	-0.006773	-0.821073	5.229043	-69.485349	173.826356
51283		-0.018297	-0.570494	-0.006671	-0.821071	5.211582	-69.486159	173.831108
51284		-0.018346	-0.570487	-0.006555	-0.821076	5.189395	-69.485800	173.839733
51285		-0.018401	-0.570480	-0.006466	-0.821080	5.175546	-69.485105	173.841644
51286		-0.018438	-0.570475	-0.006358	-0.821083	5.153376	-69.485036	173.851858
51287		-0.018497	-0.570478	-0.006274	-0.821080	5.141821	-69.485744	173.851616
51288		-0.018548	-0.570482	-0.006180	-0.821077	5.126236	-69.486623	173.855305
51289		-0.018596	-0.570494	-0.006082	-0.821069	5.109454	-69.488732	173.860139
51290		-0.018646	-0.570522	-0.005970	-0.821049	5.089913	-69.493082	173.866294
51291		-0.018719	-0.570558	-0.005849	-0.821023	5.072316	-69.498609	173.867924
51292		-0.018806	-0.570602	-0.005710	-0.820992	5.052851	-69.505200	173.868775
51293		-0.018917	-0.570631	-0.005578	-0.820970	5.039337	-69.509477	173.862325
51294		-0.019030	-0.570658	-0.005414	-0.820949	5.017390	-69.513849	173.861486
51295		-0.019140	-0.570690	-0.005273	-0.820925	5.001225	-69.518699	173.856922
51296		-0.019251	-0.570703	-0.005146	-0.820915	4.988345	-69.520722	173.850188
51297		-0.019349	-0.570723	-0.005016	-0.820899	4.972583	-69.523864	173.847233
51298		-0.019456	-0.570738	-0.004898	-0.820887	4.961300	-69.526250	173.839982
51299		-0.019552	-0.570741	-0.004783	-0.820884	4.948538	-69.526853	173.835421
51300		-0.019672	-0.570741	-0.004681	-0.820881	4.943472	-69.526937	173.822153
51301		-0.019751	-0.570740	-0.004583	-0.820880	4.931798	-69.527129	173.819274
51302		-0.019833	-0.570725	-0.004492	-0.820890	4.922260	-69.525138	173.814538
51303		-0.019926	-0.570709	-0.004410	-0.820899	4.916811	-69.523001	173.805588
51304		-0.020022	-0.570681	-0.004341	-0.820916	4.915192	-69.519051	173.793670
51305		-0.020087	-0.570660	-0.004292	-0.820929	4.913528	-69.516192	173.785850
51306		-0.020123	-0.570660	-0.004268	-0.820929	4.913484	-69.516137	173.780986
51307		-0.020155	-0.570668	-0.004256	-0.820922	4.916607	-69.517126	173.774188
51308		-0.020147	-0.570668	-0.004260	-0.820923	4.916181	-69.517080	173.775666
51309		-0.020179	-0.570688	-0.004277	-0.820908	4.927565	-69.519635	173.763041
51310		-0.020169	-0.570729	-0.004283	-0.820880	4.928784	-69.525245	173.763091
51311		-0.020198	-0.570763	-0.004277	-0.820855	4.933898	-69.529872	173.755200
51312		-0.020238	-0.570804	-0.004255	-0.820826	4.937073	-69.535564	173.746897
51313		-0.020303	-0.570858	-0.004212	-0.820787	4.939662	-69.542994	173.735375
51314		-0.020387	-0.570923	-0.004159	-0.820740	4.943603	-69.551950	173.720233
51315		-0.020484	-0.571002	-0.004109	-0.820683	4.951321	-69.562709	173.700484
51316		-0.020609	-0.571056	-0.004055	-0.820642	4.962107	-69.569813	173.674870
51317		-0.020761	-0.571079	-0.003955	-0.820623	4.964609	-69.572935	173.651631
51318		-0.020912	-0.571091	-0.003851	-0.820612	4.965040	-69.574380	173.630239
51319		-0.021100	-0.571038	-0.003732	-0.820644	4.966378	-69.566909	173.603612
51320		-0.021273	-0.570952	-0.003582	-0.820700	4.955079	-69.555048	173.588319
51321		-0.021446	-0.570814	-0.003418	-0.820792	4.937958	-69.536097	173.577633
51322		-0.021596	-0.570653	-0.003251	-0.820901	4.914919	-69.514198	173.574476
51323		-0.021729	-0.570464	-0.003127	-0.821029	4.899376	-69.488136	173.568851
51324		-0.021854	-0.570269	-0.003015	-0.821162	4.885049	-69.461101	173.563519
51325		-0.021935	-0.570037	-0.002936	-0.821321	4.870181	-69.429118	173.565238
51326		-0.021996	-0.569784	-0.002874	-0.821495	4.855272	-69.394081	173.569802
51327		-0.022040	-0.569513	-0.002841	-0.821682	4.844315	-69.356391	173.574397
51328		-0.022062	-0.569246	-0.002813	-0.821866	4.831024	-69.319496	173.583476
51329		-0.022058	-0.569001	-0.002800	-0.822036	4.817452	-69.285645	173.596211
51330		-0.022021	-0.568787	-0.002781	-0.822185	4.797669	-69.256347	173.617382
51331		-0.021971	-0.568587	-0.002772	-0.822325	4.778548	-69.228867	173.639796
51332		-0.021888	-0.568419	-0.002779	-0.822443	4.759208	-69.206062	173.666524
51333		-0.021791	-0.568238	-0.002809	-0.822571	4.742756	-69.181270	173.693325
51334		-0.021658	-0.568097	-0.002837	-0.822672	4.720776	-69.162274	173.728627
51335		-0.021533	-0.567959	-0.002865	-0.822770	4.700298	-69.143692	173.761582
51336		-0.021395	-0.567831	-0.002904	-0.822862	4.680771	-69.126399	173.795711
51337		-0.021224	-0.567717	-0.002943	-0.822945	4.656086	-69.111268	173.837634
51338		-0.021055	-0.567601	-0.002983	-0.823029	4.631627	-69.095820	173.879264
51339		-0.020873	-0.567492	-0.003036	-0.823109	4.608730	-69.081305	173.921552
51340		-0.020716	-0.567384	-0.003074	-0.823187	4.586522	-69.067055	173.959753
51341		-0.020577	-0.567275	-0.003115	-0.823265	4.568279	-69.052353	173.992774
51342		-0.020483	-0.567168	-0.003101	-0.823342	4.543704	-69.038129	174.023899
51343		-0.020396	-0.567095	-0.003048	-0.823394	4.511413	-69.028893	174.058969
51344		-0.020322	-0.567032	-0.002983	-0.823439	4.478890	-69.021091	174.092192
51345		-0.020258	-0.567000	-0.002942	-0.823464	4.455419	-69.017216	174.117621
51346		-0.020185	-0.566970	-0.002914	-0.823486	4.433902	-69.013678	174.142879
51347		-0.020104	-0.566989	-0.002886	-0.823475	4.412616	-69.016949	174.168535
51348		-0.020048	-0.567006	-0.002887	-0.823465	4.403078	-69.019549	174.182694
51349		-0.019985	-0.567054	-0.002884	-0.823433	4.392557	-69.026592	174.198154
51350		-0.019944	-0.567095	-0.002899	-0.823406	4.390661	-69.032423	174.204757
51351		-0.019891	-0.567134	-0.002927	-0.823380	4.389517	-69.037897	174.212524
51352		-0.019876	-0.567173	-0.002930	-0.823354	4.389016	-69.043356	174.214608
51353		-0.019853	-0.567190	-0.002918	-0.823343	4.382233	-69.045918	174.222198
51354		-0.019839	-0.567179	-0.002881	-0.823351	4.369591	-69.044737	174.233045
51355		-0.019830	-0.567171	-0.002845	-0.823356	4.358281	-69.043969	174.242116
51356		-0.019825	-0.567149	-0.002816	-0.823372	4.349105	-69.041052	174.249296
51357		-0.019827	-0.567132	-0.002794	-0.823383	4.342958	-69.038908	174.253354
51358		-0.019825	-0.567092	-0.002761	-0.823411	4.332632	-69.033654	174.261241
51359		-0.019858	-0.567064	-0.002738	-0.823430	4.331527	-69.029625	174.257643
51360		-0.019913	-0.567012	-0.002698	-0.823464	4.329344	-69.022471	174.251969
51361		-0.019982	-0.566931	-0.002638	-0.823518	4.323376	-69.011338	174.247286
51362		-0.020062	-0.566827	-0.002563	-0.823589	4.314689	-68.996933	174.243247
51363		-0.020162	-0.566703	-0.002471	-0.823671	4.304500	-68.979996	174.237599
51364		-0.020259	-0.566557	-0.002406	-0.823770	4.300107	-68.959669	174.228526
51365		-0.020344	-0.566404	-0.002341	-0.823873	4.293406	-68.938496	174.222795
51366		-0.020433	-0.566294	-0.002287	-0.823947	4.291477	-68.923143	174.212936
51367		-0.020509	-0.566164	-0.002204	-0.824034	4.279229	-68.905316	174.211975
51368		-0.020627	-0.566055	-0.002125	-0.824107	4.276175	-68.890097	174.198742
51369		-0.020755	-0.565929	-0.002020	-0.824190	4.267402	-68.872781	174.188299
51370		-0.020912	-0.565792	-0.001905	-0.824280	4.261202	-68.853860	174.172056
51371		-0.021039	-0.565667	-0.001800	-0.824364	4.252418	-68.836550	174.161626
51372		-0.021159	-0.565527	-0.001726	-0.824457	4.250002	-68.817110	174.148065
51373		-0.021261	-0.565410	-0.001667	-0.824534	4.248760	-68.800854	174.135918
51374		-0.021363	-0.565275	-0.001589	-0.824624	4.242297	-68.782144	174.127474
51375		-0.021490	-0.565142	-0.001521	-0.824713	4.242848	-68.763534	174.110780
51376		-0.021632	-0.565012	-0.001444	-0.824798	4.244060	-68.745431	174.091548
51377		-0.021774	-0.564888	-0.001357	-0.824879	4.242491	-68.728173	174.074203
51378		-0.021929	-0.564791	-0.001277	-0.824942	4.246056	-68.714484	174.051166
51379		-0.022071	-0.564717	-0.001213	-0.824988	4.252236	-68.704037	174.028014
51380		-0.022206	-0.564654	-0.001162	-0.825028	4.260842	-68.694955	174.003989
51381		-0.022326	-0.564607	-0.001111	-0.825057	4.267373	-68.688273	173.983385
51382		-0.022481	-0.564592	-0.001053	-0.825064	4.279380	-68.685685	173.953822
51383		-0.022650	-0.564631	-0.000966	-0.825032	4.288020	-68.690895	173.924111
51384		-0.022835	-0.564694	-0.000878	-0.824984	4.300236	-68.699302	173.889440
51385		-0.023030	-0.564785	-0.000792	-0.824916	4.315530	-68.711485	173.850873
51386		-0.023249	-0.564880	-0.000697	-0.824845	4.333062	-68.724257	173.807581
51387		-0.023448	-0.564978	-0.000625	-0.824772	4.353175	-68.737280	173.765112
51388		-0.023644	-0.565035	-0.000556	-0.824728	4.372220	-68.744680	173.724251
51389		-0.023814	-0.565057	-0.000536	-0.824708	4.398004	-68.746868	173.682777
51390		-0.023953	-0.565046	-0.000550	-0.824711	4.425926	-68.744627	173.644627
51391		-0.024060	-0.565007	-0.000590	-0.824735	4.453984	-68.738217	173.610914
51392		-0.024153	-0.564974	-0.000619	-0.824755	4.477061	-68.733000	173.582613
51393		-0.024253	-0.564974	-0.000643	-0.824752	4.500887	-68.732264	173.552494
51394		-0.024332	-0.565014	-0.000643	-0.824722	4.516493	-68.737380	173.530424
51395		-0.024408	-0.565100	-0.000597	-0.824661	4.521081	-68.749227	173.515822
51396		-0.024473	-0.565223	-0.000554	-0.824575	4.525824	-68.766257	173.502152
51397		-0.024542	-0.565383	-0.000496	-0.824463	4.528729	-68.788453	173.488878
51398		-0.024563	-0.565545	-0.000443	-0.824351	4.524685	-68.811099	173.486914
51399		-0.024595	-0.565706	-0.000415	-0.824240	4.528865	-68.833375	173.477899
51400		-0.024615	-0.565838	-0.000403	-0.824149	4.534134	-68.851662	173.470011
51401		-0.024626	-0.565948	-0.000393	-0.824073	4.537311	-68.866879	173.465110
51402		-0.024610	-0.566047	-0.000427	-0.824005	4.546973	-68.880502	173.459656
51403		-0.024564	-0.566141	-0.000468	-0.823942	4.552886	-68.893399	173.460938
51404		-0.024518	-0.566257	-0.000492	-0.823864	4.555062	-68.909492	173.464588
51405		-0.024471	-0.566358	-0.000513	-0.823796	4.555803	-68.923525	173.469511
51406		-0.024406	-0.566461	-0.000515	-0.823727	4.548392	-68.938168	173.482484
51407		-0.024353	-0.566582	-0.000511	-0.823646	4.542008	-68.955196	173.492996
51408		-0.024308	-0.566685	-0.000488	-0.823576	4.531873	-68.969920	173.504976
51409		-0.024254	-0.566792	-0.000472	-0.823504	4.521613	-68.985182	173.518458
51410		-0.024197	-0.566897	-0.000474	-0.823433	4.515713	-68.999964	173.529246
51411		-0.024120	-0.566973	-0.000485	-0.823383	4.507281	-69.010857	173.544910
51412		-0.024048	-0.567055	-0.000493	-0.823329	4.499601	-69.022568	173.559274
51413		-0.023980	-0.567125	-0.000524	-0.823282	4.497910	-69.032444	173.569114
51414		-0.023929	-0.567183	-0.000565	-0.823244	4.501341	-69.040400	173.573248
51415		-0.023864	-0.567226	-0.000606	-0.823216	4.501968	-69.046449	173.581396
51416		-0.023814	-0.567264	-0.000653	-0.823192	4.506773	-69.051520	173.584681
51417		-0.023758	-0.567288	-0.000686	-0.823176	4.506083	-69.054983	173.592621
51418		-0.023714	-0.567296	-0.000699	-0.823172	4.501696	-69.056186	173.601789
51419		-0.023672	-0.567296	-0.000708	-0.823173	4.496432	-69.056334	173.611249
51420		-0.023627	-0.567280	-0.000707	-0.823185	4.487452	-69.054441	173.623792
51421		-0.023575	-0.567252	-0.000691	-0.823206	4.472928	-69.050933	173.641311
51422		-0.023514	-0.567217	-0.000687	-0.823232	4.459575	-69.046449	173.659352
51423		-0.023463	-0.567165	-0.000689	-0.823270	4.449034	-69.039474	173.674279
51424		-0.023438	-0.567112	-0.000670	-0.823307	4.437476	-69.032381	173.686296
51425		-0.023424	-0.567055	-0.000652	-0.823346	4.428319	-69.024767	173.695073
51426		-0.023419	-0.567001	-0.000624	-0.823384	4.418338	-69.017519	173.703144
51427		-0.023423	-0.566961	-0.000619	-0.823412	4.416149	-69.011905	173.704628
51428		-0.023456	-0.566905	-0.000599	-0.823449	4.414860	-69.004238	173.701404
51429		-0.023470	-0.566887	-0.000552	-0.823461	4.404410	-69.002034	173.706848
51430		-0.023508	-0.566874	-0.000496	-0.823469	4.396242	-69.000442	173.707344
51431		-0.023568	-0.566904	-0.000436	-0.823446	4.392409	-69.004723	173.701219
51432		-0.023634	-0.566923	-0.000372	-0.823432	4.388130	-69.007469	173.694802
51433		-0.023713	-0.566952	-0.000305	-0.823409	4.385793	-69.011615	173.685181
51434		-0.023790	-0.566983	-0.000230	-0.823386	4.381023	-69.016054	173.677423
51435		-0.023867	-0.567016	-0.000153	-0.823361	4.376085	-69.020764	173.669639
51436		-0.023922	-0.567070	-0.000064	-0.823322	4.364367	-69.028653	173.669547
51437		-0.023993	-0.567115	0.000001	-0.823289	4.361702	-69.035024	173.661019
51438		-0.024071	-0.567139	0.000073	-0.823270	4.357873	-69.038517	173.652524
51439		-0.024143	-0.567168	0.000157	-0.823248	4.349746	-69.042751	173.647785
51440		-0.024215	-0.567188	0.000236	-0.823232	4.342727	-69.045743	173.642312
51441		-0.024304	-0.567199	0.000329	-0.823222	4.334868	-69.047507	173.635161
51442		-0.024409	-0.567210	0.000437	-0.823211	4.326051	-69.049400	173.626492
51443		-0.024528	-0.567219	0.000560	-0.823201	4.315392	-69.050983	173.617230
51444		-0.024644	-0.567219	0.000660	-0.823198	4.310046	-69.051144	173.604786
51445		-0.024762	-0.567221	0.000746	-0.823193	4.308836	-69.051404	173.589138
51446		-0.024878	-0.567231	0.000824	-0.823182	4.309915	-69.052791	173.572082
51447		-0.024984	-0.567241	0.000906	-0.823172	4.307789	-69.054229	173.558732
51448		-0.025096	-0.567260	0.000963	-0.823156	4.313802	-69.056705	173.538767
51449		-0.025183	-0.567266	0.001012	-0.823149	4.317021	-69.057512	173.524368
51450		-0.025273	-0.567261	0.001062	-0.823149	4.319738	-69.056807	173.510090
51451		-0.025348	-0.567260	0.001126	-0.823148	4.316571	-69.056656	173.501782
51452		-0.025427	-0.567242	0.001166	-0.823157	4.319784	-69.054174	173.488730
51453		-0.025499	-0.567246	0.001216	-0.823152	4.319874	-69.054750	173.478696
51454		-0.025554	-0.567257	0.001258	-0.823143	4.319165	-69.056229	173.471347
51455		-0.025616	-0.567263	0.001301	-0.823137	4.319319	-69.057053	173.462629
51456		-0.025676	-0.567276	0.001340	-0.823126	4.320423	-69.058918	173.453267
51457		-0.025733	-0.567291	0.001378	-0.823114	4.321230	-69.061034	173.444662
51458		-0.025793	-0.567310	0.001422	-0.823099	4.321102	-69.063616	173.436237
51459		-0.025869	-0.567321	0.001474	-0.823089	4.321781	-69.065239	173.424996
51460		-0.025988	-0.567342	0.001530	-0.823071	4.329343	-69.067863	173.403043
51461		-0.026108	-0.567360	0.001631	-0.823054	4.325141	-69.070673	173.389015
51462		-0.026230	-0.567388	0.001726	-0.823031	4.323309	-69.074583	173.373042
51463		-0.026337	-0.567445	0.001792	-0.822988	4.327530	-69.082475	173.354564
51464		-0.026456	-0.567499	0.001865	-0.822947	4.331945	-69.089849	173.334315
51465		-0.026548	-0.567553	0.001932	-0.822906	4.333046	-69.097510	173.320191
51466		-0.026618	-0.567617	0.002003	-0.822860	4.329227	-69.106511	173.312441
51467		-0.026668	-0.567682	0.002035	-0.822813	4.332227	-69.115522	173.302710
51468		-0.026721	-0.567733	0.002076	-0.822777	4.333041	-69.122600	173.294208
51469		-0.026772	-0.567781	0.002127	-0.822741	4.330554	-69.129479	173.288287
51470		-0.026812	-0.567839	0.002147	-0.822700	4.334728	-69.137493	173.279151
51471		-0.026845	-0.567892	0.002202	-0.822662	4.328122	-69.145070	173.278582
51472		-0.026869	-0.567938	0.002246	-0.822629	4.322724	-69.151704	173.278385
51473		-0.026904	-0.567984	0.002298	-0.822596	4.317093	-69.158353	173.276841
51474		-0.026933	-0.568024	0.002340	-0.822568	4.312688	-69.163984	173.275452
51475		-0.026941	-0.568052	0.002371	-0.822548	4.306973	-69.168105	173.277985
51476		-0.026945	-0.568067	0.002373	-0.822538	4.307795	-69.170207	173.276645
51477		-0.026934	-0.568075	0.002372	-0.822533	4.306189	-69.171349	173.279208
51478		-0.026909	-0.568066	0.002364	-0.822540	4.303502	-69.170159	173.284632
51479		-0.026907	-0.568071	0.002353	-0.822536	4.306087	-69.170851	173.283152
51480		-0.026879	-0.568062	0.002327	-0.822544	4.307599	-69.169420	173.286132
51481		-0.026855	-0.568040	0.002316	-0.822559	4.305196	-69.166496	173.291338
51482		-0.026834	-0.568008	0.002308	-0.822583	4.302274	-69.162014	173.296629
51483		-0.026814	-0.567980	0.002312	-0.822602	4.296602	-69.158364	173.303574
51484		-0.026802	-0.567928	0.002297	-0.822638	4.296655	-69.151103	173.305743
51485		-0.026776	-0.567893	0.002281	-0.822664	4.294647	-69.146205	173.311169
51486		-0.026780	-0.567832	0.002255	-0.822706	4.299950	-69.137487	173.307666
51487		-0.026728	-0.567796	0.002234	-0.822732	4.294864	-69.132601	173.318784
51488		-0.026692	-0.567746	0.002208	-0.822768	4.293568	-69.125695	173.325138
51489		-0.026640	-0.567706	0.002159	-0.822797	4.295348	-69.120043	173.331685
51490		-0.026600	-0.567663	0.002118	-0.822829	4.297305	-69.113899	173.336418
51491		-0.026538	-0.567625	0.002079	-0.822857	4.294906	-69.108696	173.346998
51492		-0.026486	-0.567587	0.002057	-0.822885	4.289986	-69.103519	173.358118
51493		-0.026461	-0.567545	0.002021	-0.822915	4.293213	-69.097495	173.359842
51494		-0.026389	-0.567522	0.001995	-0.822933	4.286339	-69.094529	173.374762
51495		-0.026326	-0.567488	0.001949	-0.822959	4.285580	-69.089692	173.384470
51496		-0.026262	-0.567465	0.001922	-0.822976	4.280241	-69.086729	173.397305
51497		-0.026214	-0.567436	0.001886	-0.822998	4.280008	-69.082693	173.404491
51498		-0.026158	-0.567416	0.001859	-0.823014	4.276278	-69.079916	173.414959
51499		-0.026131	-0.567404	0.001862	-0.823022	4.270303	-69.078490	173.422980
51500		-0.026077	-0.567389	0.001840	-0.823035	4.265643	-69.076501	173.433936
51501		-0.026086	-0.567353	0.001837	-0.823060	4.266667	-69.071355	173.432340
51502		-0.026065	-0.567320	0.001829	-0.823083	4.263785	-69.066912	173.437560
51503		-0.026055	-0.567312	0.001848	-0.823089	4.256706	-69.065922	173.443922
51504		-0.026066	-0.567284	0.001856	-0.823108	4.255807	-69.062074	173.443289
51505		-0.026082	-0.567255	0.001873	-0.823127	4.253178	-69.058174	173.443200
51506		-0.026095	-0.567233	0.001886	-0.823142	4.251126	-69.055102	173.443055
51507		-0.026127	-0.567224	0.001900	-0.823147	4.252849	-69.053777	173.437533
51508		-0.026145	-0.567208	0.001938	-0.823157	4.245726	-69.051785	173.440096
51509		-0.026182	-0.567206	0.001954	-0.823157	4.248029	-69.051506	173.433379
51510		-0.026235	-0.567188	0.001955	-0.823168	4.256696	-69.048675	173.420234
51511		-0.026286	-0.567175	0.001983	-0.823175	4.258289	-69.046859	173.412077
51512		-0.026334	-0.567170	0.002006	-0.823177	4.260707	-69.046046	173.403882
51513		-0.026391	-0.567164	0.002036	-0.823179	4.262879	-69.045276	173.394530
51514		-0.026441	-0.567150	0.002062	-0.823187	4.264613	-69.043211	173.386534
51515		-0.026482	-0.567142	0.002093	-0.823191	4.263660	-69.042203	173.381541
51516		-0.026545	-0.567147	0.002135	-0.823186	4.264037	-69.042861	173.372497
51517		-0.026601	-0.567142	0.002166	-0.823188	4.266208	-69.042091	173.363147
51518		-0.026643	-0.567145	0.002205	-0.823184	4.263610	-69.042646	173.359071
51519		-0.026705	-0.567131	0.002239	-0.823192	4.265134	-69.040586	173.349600
51520		-0.026768	-0.567107	0.002275	-0.823206	4.266412	-69.037232	173.340235
51521		-0.026823	-0.567088	0.002317	-0.823217	4.264747	-69.034689	173.333805
51522		-0.026880	-0.567063	0.002348	-0.823232	4.265842	-69.031260	173.325503
51523		-0.026921	-0.567056	0.002379	-0.823236	4.264886	-69.030253	173.320514
51524		-0.026972	-0.567034	0.002422	-0.823249	4.261904	-69.027307	173.315684
51525		-0.027014	-0.567019	0.002434	-0.823258	4.266156	-69.025173	173.307017
51526		-0.027063	-0.566997	0.002459	-0.823271	4.267374	-69.022023	173.299656
51527		-0.027099	-0.566978	0.002478	-0.823283	4.268438	-69.019407	173.294027
51528		-0.027137	-0.566962	0.002506	-0.823293	4.267101	-69.017105	173.289957
51529		-0.027167	-0.566942	0.002542	-0.823306	4.262375	-69.014570	173.289202
51530		-0.027203	-0.566935	0.002585	-0.823309	4.257510	-69.013753	173.287609
51531		-0.027231	-0.566919	0.002614	-0.823319	4.254410	-69.011582	173.285995
51532		-0.027262	-0.566887	0.002634	-0.823340	4.253357	-69.007219	173.282798
51533		-0.027271	-0.566875	0.002667	-0.823348	4.246160	-69.005736	173.286514
51534		-0.027295	-0.566862	0.002664	-0.823356	4.250732	-69.003842	173.280243
51535		-0.027300	-0.566860	0.002692	-0.823358	4.244182	-69.003649	173.284081
51536		-0.027292	-0.566851	0.002706	-0.823364	4.238728	-69.002595	173.289055
51537		-0.027310	-0.566833	0.002718	-0.823376	4.238298	-69.000104	173.286919
51538		-0.027310	-0.566810	0.002728	-0.823391	4.234831	-68.997052	173.289555
51539		-0.027314	-0.566769	0.002733	-0.823419	4.232664	-68.991422	173.290998
51540		-0.027334	-0.566730	0.002770	-0.823445	4.225295	-68.986191	173.293685
51541		-0.027339	-0.566690	0.002792	-0.823473	4.218907	-68.980761	173.297818
51542		-0.027361	-0.566626	0.002811	-0.823516	4.215553	-68.972000	173.297642
51543		-0.027361	-0.566578	0.002831	-0.823549	4.208593	-68.965522	173.302961
51544		-0.027362	-0.566539	0.002844	-0.823575	4.203960	-68.960191	173.306441
51545		-0.027342	-0.566512	0.002848	-0.823595	4.198356	-68.956537	173.313324
51546		-0.027327	-0.566496	0.002837	-0.823606	4.198178	-68.954382	173.315672
51547		-0.027319	-0.566481	0.002835	-0.823617	4.196326	-68.952259	173.318341
51548		-0.027322	-0.566455	0.002821	-0.823635	4.199808	-68.948504	173.315746
51549		-0.027317	-0.566433	0.002834	-0.823650	4.194716	-68.945654	173.320120
51550		-0.027320	-0.566424	0.002817	-0.823656	4.199389	-68.944259	173.316661
51551		-0.027305	-0.566404	0.002823	-0.823670	4.194365	-68.941653	173.322351
51552		-0.027297	-0.566378	0.002839	-0.823689	4.187689	-68.938157	173.328427
51553		-0.027284	-0.566355	0.002853	-0.823705	4.181050	-68.935187	173.334966
51554		-0.027287	-0.566326	0.002860	-0.823724	4.178591	-68.931231	173.336594
51555		-0.027274	-0.566304	0.002874	-0.823740	4.171955	-68.928261	173.343130
51556		-0.027274	-0.566284	0.002878	-0.823754	4.170185	-68.925596	173.344575
51557		-0.027272	-0.566273	0.002886	-0.823761	4.167291	-68.924157	173.346905
51558		-0.027282	-0.566258	0.002885	-0.823771	4.168802	-68.922040	173.344660
51559		-0.027282	-0.566244	0.002901	-0.823781	4.164291	-68.920237	173.347840
51560		-0.027280	-0.566228	0.002914	-0.823792	4.159880	-68.918142	173.351431
51561		-0.027303	-0.566222	0.002938	-0.823796	4.157424	-68.917264	173.349942
51562		-0.027325	-0.566209	0.002950	-0.823803	4.157708	-68.915572	173.346823
51563		-0.027341	-0.566198	0.002965	-0.823810	4.156299	-68.914011	173.345670
51564		-0.027343	-0.566207	0.002978	-0.823804	4.153667	-68.915336	173.347096
51565		-0.027337	-0.566202	0.002972	-0.823808	4.154008	-68.914625	173.347726
51566		-0.027342	-0.566176	0.002974	-0.823825	4.153279	-68.911049	173.347839
51567		-0.027330	-0.566167	0.002976	-0.823832	4.150454	-68.909853	173.351485
51568		-0.027323	-0.566152	0.002969	-0.823842	4.150480	-68.907822	173.352704
51569		-0.027318	-0.566127	0.002972	-0.823860	4.148000	-68.904410	173.355234
51570		-0.027308	-0.566117	0.002968	-0.823867	4.146756	-68.903073	173.357623
51571		-0.027307	-0.566103	0.002967	-0.823877	4.146461	-68.901073	173.358121
51572		-0.027301	-0.566107	0.002969	-0.823874	4.144857	-68.901731	173.360034
51573		-0.027306	-0.566101	0.002987	-0.823878	4.140920	-68.900976	173.362028
51574		-0.027295	-0.566114	0.003007	-0.823869	4.134344	-68.903038	173.367926
51575		-0.027289	-0.566130	0.003008	-0.823859	4.133290	-68.905226	173.369342
51576		-0.027302	-0.566133	0.003023	-0.823856	4.131834	-68.905688	173.368573
51577		-0.027310	-0.566137	0.003036	-0.823853	4.130080	-68.906344	173.368537
51578		-0.027317	-0.566137	0.003053	-0.823853	4.126823	-68.906413	173.369814
51579		-0.027334	-0.566146	0.003093	-0.823846	4.119808	-68.907949	173.372125
51580		-0.027345	-0.566143	0.003135	-0.823847	4.110713	-68.907795	173.376929
51581		-0.027373	-0.566144	0.003162	-0.823846	4.108827	-68.907968	173.374258
51582		-0.027420	-0.566134	0.003195	-0.823851	4.108169	-68.906608	173.368255
51583		-0.027440	-0.566137	0.003232	-0.823848	4.102136	-68.907219	173.369582
51584		-0.027475	-0.566123	0.003270	-0.823856	4.098174	-68.905424	173.367616
51585		-0.027515	-0.566105	0.003323	-0.823867	4.090811	-68.903214	173.367349
51586		-0.027550	-0.566084	0.003356	-0.823880	4.087753	-68.900409	173.364773
51587		-0.027583	-0.566055	0.003379	-0.823899	4.086634	-68.896394	173.361175
51588		-0.027625	-0.566036	0.003433	-0.823910	4.079528	-68.893971	173.360385
51589		-0.027668	-0.566012	0.003483	-0.823925	4.073150	-68.890836	173.359132
51590		-0.027709	-0.565976	0.003538	-0.823949	4.064833	-68.886020	173.359452
51591		-0.027770	-0.565947	0.003585	-0.823966	4.062532	-68.882207	173.352887
51592		-0.027833	-0.565914	0.003638	-0.823986	4.058819	-68.877730	173.346913
51593		-0.027888	-0.565882	0.003693	-0.824006	4.053358	-68.873430	173.343357
51594		-0.027949	-0.565845	0.003756	-0.824029	4.046561	-68.868505	173.339947
51595		-0.027992	-0.565797	0.003788	-0.824061	4.044180	-68.861913	173.336070
51596		-0.028028	-0.565766	0.003844	-0.824080	4.034804	-68.857962	173.337845
51597		-0.028061	-0.565720	0.003870	-0.824111	4.032492	-68.851611	173.335283
51598		-0.028079	-0.565698	0.003903	-0.824125	4.026362	-68.848760	173.337161
51599		-0.028127	-0.565678	0.003945	-0.824137	4.023143	-68.846115	173.332901
51600		-0.028173	-0.565669	0.003994	-0.824142	4.018193	-68.844921	173.330055
51601		-0.028222	-0.565666	0.004052	-0.824141	4.011961	-68.844810	173.327432
51602		-0.028266	-0.565654	0.004106	-0.824148	4.005322	-68.843381	173.326101
51603		-0.028313	-0.565655	0.004156	-0.824146	4.000701	-68.843635	173.322636
51604		-0.028349	-0.565663	0.004196	-0.824138	3.996983	-68.844926	173.320127
51605		-0.028384	-0.565668	0.004232	-0.824133	3.994039	-68.845784	173.317135
51606		-0.028425	-0.565671	0.004271	-0.824130	3.991383	-68.846265	173.313241
51607		-0.028464	-0.565670	0.004305	-0.824129	3.989422	-68.846199	173.309265
51608		-0.028494	-0.565669	0.004332	-0.824129	3.987757	-68.846103	173.306201
51609		-0.028524	-0.565666	0.004366	-0.824129	3.984252	-68.845912	173.304383
51610		-0.028545	-0.565670	0.004380	-0.824126	3.984319	-68.846438	173.301444
51611		-0.028555	-0.565675	0.004411	-0.824122	3.978357	-68.847286	173.304086
51612		-0.028581	-0.565666	0.004431	-0.824127	3.977482	-68.846143	173.301168
51613		-0.028577	-0.565679	0.004440	-0.824119	3.974808	-68.847958	173.303442
51614		-0.028592	-0.565662	0.004459	-0.824130	3.971898	-68.845708	173.303478
51615		-0.028577	-0.565662	0.004473	-0.824130	3.965510	-68.845986	173.309925
51616		-0.028569	-0.565652	0.004471	-0.824137	3.964325	-68.844615	173.311908
51617		-0.028558	-0.565660	0.004471	-0.824132	3.962700	-68.845746	173.314513
51618		-0.028538	-0.565673	0.004468	-0.824124	3.960135	-68.847581	173.318976
51619		-0.028532	-0.565685	0.004460	-0.824116	3.961662	-68.849201	173.318582
51620		-0.028543	-0.565694	0.004478	-0.824109	3.959218	-68.850539	173.318611
51621		-0.028525	-0.565721	0.004503	-0.824091	3.950432	-68.854637	173.326854
51622		-0.028543	-0.565724	0.004521	-0.824088	3.949074	-68.855056	173.325215
51623		-0.028531	-0.565739	0.004541	-0.824078	3.942256	-68.857306	173.331484
51624		-0.028529	-0.565754	0.004556	-0.824068	3.938599	-68.859540	173.334006
51625		-0.028527	-0.565767	0.004582	-0.824059	3.931713	-68.861551	173.338960
51626		-0.028529	-0.565789	0.004582	-0.824043	3.932807	-68.864668	173.337737
51627		-0.028514	-0.565824	0.004592	-0.824020	3.928775	-68.869621	173.342148
51628		-0.028512	-0.565839	0.004591	-0.824010	3.929354	-68.871705	173.341827
51629		-0.028514	-0.565873	0.004590	-0.823987	3.931008	-68.876350	173.340087
51630		-0.028506	-0.565895	0.004605	-0.823971	3.926540	-68.879634	173.343999
51631		-0.028510	-0.565929	0.004622	-0.823948	3.923984	-68.884474	173.344936
51632		-0.028496	-0.565980	0.004629	-0.823914	3.921320	-68.891552	173.348139
51633		-0.028477	-0.566024	0.004635	-0.823884	3.917902	-68.897794	173.352710
51634		-0.028455	-0.566072	0.004642	-0.823851	3.913651	-68.904669	173.358206
51635		-0.028432	-0.566119	0.004624	-0.823820	3.916053	-68.911083	173.359259
51636		-0.028397	-0.566158	0.004613	-0.823794	3.913969	-68.916645	173.365057
51637		-0.028346	-0.566214	0.004601	-0.823758	3.909741	-68.924528	173.374596
51638		-0.028337	-0.566247	0.004576	-0.823736	3.915847	-68.928869	173.371253
51639		-0.028289	-0.566280	0.004581	-0.823715	3.907210	-68.933682	173.383503
51640		-0.028272	-0.566307	0.004583	-0.823696	3.904460	-68.937636	173.387543
51641		-0.028236	-0.566332	0.004591	-0.823681	3.896746	-68.941287	173.397483
51642		-0.028193	-0.566349	0.004589	-0.823670	3.889949	-68.943817	173.408037
51643		-0.028178	-0.566367	0.004601	-0.823659	3.884711	-68.946432	173.413495
51644		-0.028168	-0.566372	0.004585	-0.823656	3.887517	-68.947025	173.412889
51645		-0.028164	-0.566384	0.004594	-0.823647	3.884824	-68.948844	173.415184
51646		-0.028184	-0.566354	0.004607	-0.823667	3.883875	-68.944714	173.413381
51647		-0.028194	-0.566342	0.004639	-0.823675	3.876722	-68.943223	173.417053
51648		-0.028212	-0.566329	0.004671	-0.823683	3.871312	-68.941599	173.418302
51649		-0.028227	-0.566324	0.004706	-0.823686	3.864714	-68.941158	173.420807
51650		-0.028233	-0.566320	0.004734	-0.823688	3.858394	-68.940778	173.424330
51651		-0.028241	-0.566328	0.004757	-0.823682	3.854025	-68.941992	173.426149
51652		-0.028241	-0.566314	0.004766	-0.823692	3.851092	-68.940089	173.428261
51653		-0.028248	-0.566300	0.004765	-0.823701	3.852380	-68.938214	173.426559
51654		-0.028267	-0.566289	0.004774	-0.823708	3.852881	-68.936697	173.423670
51655		-0.028283	-0.566261	0.004791	-0.823727	3.850330	-68.932801	173.423496
51656		-0.028299	-0.566244	0.004795	-0.823738	3.851687	-68.930367	173.420554
51657		-0.028308	-0.566227	0.004800	-0.823749	3.851363	-68.928127	173.419696
51658		-0.028316	-0.566216	0.004808	-0.823757	3.850260	-68.926521	173.419388
51659		-0.028320	-0.566212	0.004819	-0.823759	3.847945	-68.926127	173.420529
51660		-0.028310	-0.566229	0.004828	-0.823747	3.844352	-68.928559	173.424174
51661		-0.028302	-0.566247	0.004823	-0.823735	3.844877	-68.931109	173.424792
51662		-0.028313	-0.566242	0.004816	-0.823738	3.848522	-68.930312	173.420752
51663		-0.028325	-0.566257	0.004825	-0.823728	3.848923	-68.932387	173.418725
51664		-0.028331	-0.566274	0.004840	-0.823716	3.846791	-68.934747	173.419097
51665		-0.028353	-0.566287	0.004855	-0.823706	3.847130	-68.936584	173.415747
51666		-0.028378	-0.566298	0.004871	-0.823698	3.847711	-68.938099	173.411752
51667		-0.028391	-0.566310	0.004887	-0.823689	3.846501	-68.939808	173.410567
51668		-0.028418	-0.566337	0.004885	-0.823669	3.852519	-68.943453	173.402506
51669		-0.028433	-0.566346	0.004908	-0.823662	3.849699	-68.944796	173.402162
51670		-0.028429	-0.566384	0.004891	-0.823636	3.854687	-68.949981	173.398989
51671		-0.028423	-0.566396	0.004883	-0.823628	3.856210	-68.951608	173.398605
51672		-0.028417	-0.566413	0.004873	-0.823617	3.858318	-68.953959	173.397841
51673		-0.028417	-0.566430	0.004857	-0.823606	3.863005	-68.956081	173.394448
51674		-0.028427	-0.566446	0.004858	-0.823594	3.865204	-68.958260	173.391392
51675		-0.028434	-0.566450	0.004854	-0.823591	3.867665	-68.958727	173.388681
51676		-0.028437	-0.566465	0.004855	-0.823581	3.868330	-68.960826	173.387714
51677		-0.028427	-0.566466	0.004835	-0.823581	3.871911	-68.960846	173.386649
51678		-0.028431	-0.566467	0.004812	-0.823580	3.878741	-68.960841	173.381297
51679		-0.028408	-0.566480	0.004797	-0.823572	3.878775	-68.962579	173.384404
51680		-0.028413	-0.566487	0.004779	-0.823567	3.884669	-68.963460	173.379592
51681		-0.028401	-0.566491	0.004752	-0.823564	3.889862	-68.963847	173.377685
51682		-0.028396	-0.566504	0.004737	-0.823556	3.893218	-68.965542	173.375983
51683		-0.028391	-0.566513	0.004719	-0.823550	3.897354	-68.966614	173.373754
51684		-0.028388	-0.566521	0.004696	-0.823545	3.903097	-68.967548	173.370033
51685		-0.028388	-0.566537	0.004681	-0.823534	3.907788	-68.969672	173.366639
51686		-0.028393	-0.566562	0.004660	-0.823517	3.914851	-68.972946	173.360868
51687		-0.028388	-0.566574	0.004652	-0.823509	3.916378	-68.974576	173.360484
51688		-0.028407	-0.566601	0.004652	-0.823490	3.920885	-68.978152	173.354429
51689		-0.028414	-0.566621	0.004646	-0.823475	3.924522	-68.980963	173.350710
51690		-0.028411	-0.566647	0.004637	-0.823458	3.927163	-68.984456	173.349047
51691		-0.028416	-0.566654	0.004626	-0.823453	3.931243	-68.985292	173.345490
51692		-0.028425	-0.566666	0.004616	-0.823444	3.936019	-68.986876	173.340819
51693		-0.028399	-0.566706	0.004612	-0.823418	3.933617	-68.992437	173.345772
51694		-0.028407	-0.566723	0.004590	-0.823406	3.941419	-68.994543	173.339113
51695		-0.028419	-0.566734	0.004588	-0.823398	3.944443	-68.996065	173.335232
51696		-0.028426	-0.566749	0.004592	-0.823387	3.945207	-68.998129	173.333570
51697		-0.028441	-0.566771	0.004586	-0.823372	3.950404	-69.001069	173.327676
51698		-0.028453	-0.566805	0.004585	-0.823348	3.953846	-69.005658	173.323262
51699		-0.028456	-0.566835	0.004575	-0.823327	3.958108	-69.009759	173.319696
51700		-0.028481	-0.566860	0.004558	-0.823309	3.968123	-69.013008	173.309026
51701		-0.028483	-0.566894	0.004557	-0.823286	3.969774	-69.017666	173.307306
51702		-0.028490	-0.566932	0.004547	-0.823259	3.975035	-69.022789	173.302321
51703		-0.028499	-0.566987	0.004554	-0.823221	3.976808	-69.030475	173.299267
51704		-0.028509	-0.567024	0.004541	-0.823195	3.983248	-69.035498	173.293038
51705		-0.028515	-0.567069	0.004553	-0.823164	3.982847	-69.041766	173.291997
51706		-0.028536	-0.567094	0.004555	-0.823146	3.987142	-69.045109	173.285832
51707		-0.028561	-0.567135	0.004563	-0.823117	3.990861	-69.050712	173.279435
51708		-0.028561	-0.567162	0.004571	-0.823098	3.989574	-69.054515	173.280066
51709		-0.028591	-0.567190	0.004574	-0.823078	3.995296	-69.058271	173.271655
51710		-0.028589	-0.567218	0.004565	-0.823059	3.998281	-69.062085	173.269569
51711		-0.028579	-0.567253	0.004541	-0.823035	4.004239	-69.066791	173.266465
51712		-0.028577	-0.567284	0.004521	-0.823014	4.010267	-69.071009	173.262202
51713		-0.028586	-0.567319	0.004503	-0.822990	4.017733	-69.075607	173.255591
51714		-0.028583	-0.567340	0.004489	-0.822975	4.021631	-69.078481	173.253089
51715		-0.028578	-0.567366	0.004469	-0.822958	4.026976	-69.081899	173.249823
51716		-0.028586	-0.567389	0.004451	-0.822942	4.033860	-69.084885	173.243773
51717		-0.028593	-0.567410	0.004445	-0.822927	4.037529	-69.087698	173.240026
51718		-0.028570	-0.567451	0.004415	-0.822899	4.042715	-69.093339	173.239204
51719		-0.028557	-0.567476	0.004395	-0.822883	4.046501	-69.096628	173.238113
51720		-0.028539	-0.567497	0.004376	-0.822869	4.048934	-69.099497	173.238733
51721		-0.028523	-0.567531	0.004369	-0.822846	4.049098	-69.104269	173.240506
51722		-0.028509	-0.567560	0.004352	-0.822827	4.052060	-69.108123	173.240106
51723		-0.028494	-0.567591	0.004335	-0.822806	4.054847	-69.112337	173.240022
51724		-0.028498	-0.567616	0.004331	-0.822789	4.057671	-69.115772	173.237190
51725		-0.028480	-0.567653	0.004317	-0.822764	4.059458	-69.120911	173.238114
51726		-0.028474	-0.567688	0.004284	-0.822740	4.068468	-69.125562	173.232279
51727		-0.028464	-0.567710	0.004271	-0.822725	4.070638	-69.128488	173.232036
51728		-0.028458	-0.567744	0.004264	-0.822702	4.072577	-69.133151	173.231223
51729		-0.028440	-0.567777	0.004240	-0.822680	4.076991	-69.137734	173.230285
51730		-0.028437	-0.567814	0.004229	-0.822654	4.080678	-69.142773	173.227780
51731		-0.028431	-0.567864	0.004226	-0.822620	4.081974	-69.149653	173.227207
51732		-0.028429	-0.567902	0.004194	-0.822594	4.091367	-69.154662	173.220646
51733		-0.028430	-0.567936	0.004194	-0.822571	4.093048	-69.159328	173.218904
51734		-0.028397	-0.567993	0.004182	-0.822533	4.092131	-69.167348	173.223609
51735		-0.028383	-0.568038	0.004170	-0.822502	4.094489	-69.173543	173.223356
51736		-0.028367	-0.568073	0.004156	-0.822478	4.096483	-69.178424	173.223880
51737		-0.028349	-0.568111	0.004142	-0.822453	4.098274	-69.183567	173.224802
51738		-0.028330	-0.568153	0.004130	-0.822425	4.099269	-69.189410	173.226330
51739		-0.028316	-0.568198	0.004118	-0.822394	4.101628	-69.195607	173.226078
51740		-0.028312	-0.568254	0.004115	-0.822355	4.103852	-69.203475	173.224521
51741		-0.028332	-0.568301	0.004109	-0.822322	4.110881	-69.209822	173.216367
51742		-0.028313	-0.568371	0.004089	-0.822275	4.115187	-69.219384	173.215333
51743		-0.028294	-0.568432	0.004092	-0.822234	4.112902	-69.227988	173.218975
51744		-0.028300	-0.568487	0.004080	-0.822195	4.119401	-69.235511	173.213031
51745		-0.028279	-0.568544	0.004056	-0.822156	4.124018	-69.243368	173.212074
51746		-0.028254	-0.568592	0.004046	-0.822124	4.123927	-69.250068	173.215101
51747		-0.028241	-0.568637	0.004034	-0.822094	4.126293	-69.256268	173.214844
51748		-0.028223	-0.568672	0.004002	-0.822070	4.132554	-69.260957	173.212673
51749		-0.028199	-0.568722	0.003994	-0.822036	4.132334	-69.267954	173.215625
51750		-0.028162	-0.568779	0.003980	-0.821999	4.131303	-69.275816	173.220867
51751		-0.028134	-0.568835	0.003956	-0.821961	4.134343	-69.283548	173.222105
51752		-0.028113	-0.568897	0.003936	-0.821919	4.138159	-69.292133	173.221796
51753		-0.028087	-0.568947	0.003910	-0.821885	4.142211	-69.298942	173.222015
51754		-0.028079	-0.568975	0.003896	-0.821866	4.145331	-69.302841	173.220702
51755		-0.028081	-0.569006	0.003886	-0.821845	4.149674	-69.306959	173.217068
51756		-0.028047	-0.569009	0.003865	-0.821844	4.149183	-69.307431	173.222074
51757		-0.028069	-0.569015	0.003843	-0.821839	4.159155	-69.307980	173.212166
51758		-0.028055	-0.569021	0.003840	-0.821835	4.157617	-69.308886	173.215080
51759		-0.028039	-0.569052	0.003823	-0.821814	4.160428	-69.313114	173.214981
51760		-0.027999	-0.569079	0.003800	-0.821797	4.160026	-69.316860	173.220652
51761		-0.027981	-0.569113	0.003775	-0.821774	4.164470	-69.321455	173.219693
51762		-0.027959	-0.569152	0.003752	-0.821748	4.168043	-69.326747	173.219833
51763		-0.027946	-0.569176	0.003732	-0.821732	4.171867	-69.330052	173.218714
51764		-0.027954	-0.569219	0.003712	-0.821702	4.180333	-69.335719	173.211293
51765		-0.027919	-0.569270	0.003679	-0.821668	4.184440	-69.342770	173.212851
51766		-0.027916	-0.569294	0.003664	-0.821652	4.188669	-69.345934	173.210075
51767		-0.027899	-0.569324	0.003630	-0.821632	4.195768	-69.349975	173.207229
51768		-0.027872	-0.569364	0.003603	-0.821605	4.199487	-69.355442	173.207993
51769		-0.027849	-0.569408	0.003574	-0.821576	4.204562	-69.361333	173.207188
51770		-0.027813	-0.569451	0.003535	-0.821547	4.209773	-69.367207	173.208130
51771		-0.027787	-0.569487	0.003521	-0.821523	4.209989	-69.372236	173.211254
51772		-0.027721	-0.569533	0.003506	-0.821494	4.203603	-69.378801	173.224439
51773		-0.027706	-0.569574	0.003467	-0.821466	4.212920	-69.384267	173.219544
51774		-0.027660	-0.569615	0.003448	-0.821439	4.210739	-69.390075	173.227105
51775		-0.027629	-0.569674	0.003418	-0.821399	4.215421	-69.398187	173.227486
51776		-0.027594	-0.569734	0.003399	-0.821359	4.216119	-69.406527	173.231236
51777		-0.027569	-0.569801	0.003371	-0.821313	4.221377	-69.415695	173.230435
51778		-0.027532	-0.569872	0.003339	-0.821265	4.225586	-69.425542	173.231932
51779		-0.027503	-0.569928	0.003316	-0.821227	4.228633	-69.433290	173.233177
51780		-0.027472	-0.569989	0.003262	-0.821187	4.239491	-69.441387	173.229393
51781		-0.027415	-0.570050	0.003235	-0.821146	4.238374	-69.450041	173.237430
51782		-0.027385	-0.570088	0.003196	-0.821121	4.244703	-69.455085	173.236802
51783		-0.027362	-0.570131	0.003167	-0.821092	4.249791	-69.460986	173.235990
51784		-0.027319	-0.570178	0.003134	-0.821061	4.252188	-69.467375	173.239915
51785		-0.027298	-0.570235	0.003111	-0.821022	4.256835	-69.475256	173.238948
51786		-0.027279	-0.570298	0.003075	-0.820979	4.265094	-69.483775	173.235188
51787		-0.027249	-0.570374	0.003043	-0.820927	4.270989	-69.494245	173.234540
51788		-0.027209	-0.570436	0.002999	-0.820886	4.277610	-69.502725	173.234783
51789		-0.027195	-0.570511	0.002956	-0.820834	4.289379	-69.512898	173.227797
51790		-0.027139	-0.570594	0.002883	-0.820779	4.301489	-69.524019	173.226321
51791		-0.027100	-0.570661	0.002814	-0.820733	4.315443	-69.533062	173.221301
51792		-0.027049	-0.570726	0.002741	-0.820690	4.327860	-69.541712	173.219101
51793		-0.026991	-0.570797	0.002658	-0.820643	4.341910	-69.551236	173.216765
51794		-0.026918	-0.570871	0.002580	-0.820594	4.352011	-69.561223	173.219046
51795		-0.026842	-0.570943	0.002491	-0.820547	4.364505	-69.570863	173.220272
51796		-0.026733	-0.571009	0.002379	-0.820505	4.376497	-69.579710	173.226444
51797		-0.026653	-0.571083	0.002265	-0.820456	4.394968	-69.589534	173.224011
51798		-0.026588	-0.571154	0.002144	-0.820409	4.418059	-69.598710	173.216215
51799		-0.026515	-0.571236	0.002050	-0.820355	4.432811	-69.609782	173.215359
51800		-0.026421	-0.571321	0.001936	-0.820299	4.449228	-69.621165	173.216144
51801		-0.026340	-0.571399	0.001831	-0.820247	4.465058	-69.631556	173.215595
51802		-0.026246	-0.571479	0.001733	-0.820195	4.476932	-69.642412	173.219565
51803		-0.026149	-0.571555	0.001630	-0.820146	4.489541	-69.652553	173.223469
51804		-0.026084	-0.571619	0.001537	-0.820103	4.504894	-69.661157	173.221191
51805		-0.026007	-0.571695	0.001457	-0.820053	4.514757	-69.671377	173.224299
51806		-0.025923	-0.571753	0.001374	-0.820015	4.523669	-69.679204	173.229158
51807		-0.025848	-0.571821	0.001291	-0.819970	4.534562	-69.688502	173.231230
51808		-0.025767	-0.571883	0.001199	-0.819930	4.546443	-69.696722	173.233624
51809		-0.025685	-0.571947	0.001107	-0.819888	4.558404	-69.705340	173.236010
51810		-0.025623	-0.572012	0.001016	-0.819844	4.573866	-69.714057	173.233258
51811		-0.025549	-0.572092	0.000911	-0.819791	4.591367	-69.724600	173.230439
51812		-0.025505	-0.572180	0.000807	-0.819731	4.614507	-69.736301	173.219525
51813		-0.025421	-0.572285	0.000714	-0.819661	4.627917	-69.750555	173.220840
51814		-0.025384	-0.572383	0.000609	-0.819593	4.653225	-69.763538	173.207158
51815		-0.025357	-0.572490	0.000510	-0.819520	4.679082	-69.777758	173.191715
51816		-0.025345	-0.572597	0.000431	-0.819445	4.702524	-69.792085	173.175885
51817		-0.025341	-0.572694	0.000343	-0.819377	4.729396	-69.804891	173.156637
51818		-0.025331	-0.572782	0.000268	-0.819316	4.751439	-69.816590	173.141628
51819		-0.025329	-0.572859	0.000189	-0.819262	4.775452	-69.826675	173.124283
51820		-0.025364	-0.572934	0.000107	-0.819209	4.807266	-69.836127	173.096368
51821		-0.025389	-0.573012	0.000052	-0.819154	4.830198	-69.846406	173.075943
51822		-0.025392	-0.573097	-0.000014	-0.819094	4.852094	-69.857653	173.059302
51823		-0.025438	-0.573151	-0.000063	-0.819055	4.876443	-69.864531	173.035263
51824		-0.025479	-0.573200	-0.000105	-0.819019	4.897681	-69.870715	173.014092
51825		-0.025516	-0.573243	-0.000132	-0.818988	4.913770	-69.876233	172.997215
51826		-0.025570	-0.573287	-0.000159	-0.818955	4.933355	-69.881800	172.975356
51827		-0.025633	-0.573314	-0.000178	-0.818935	4.951444	-69.884970	172.953676
51828		-0.025712	-0.573348	-0.000161	-0.818908	4.963223	-69.889468	172.933989
51829		-0.025806	-0.573370	-0.000142	-0.818890	4.976858	-69.892096	172.911047
51830		-0.025891	-0.573404	-0.000120	-0.818864	4.988550	-69.896438	172.890536
51831		-0.025959	-0.573432	-0.000087	-0.818842	4.993555	-69.900182	172.877313
51832		-0.026048	-0.573453	-0.000050	-0.818825	5.001645	-69.902871	172.858838
51833		-0.026130	-0.573473	0.000004	-0.818808	5.003275	-69.905636	172.846046
51834		-0.026210	-0.573485	0.000052	-0.818797	5.005982	-69.907249	172.832759
51835		-0.026278	-0.573499	0.000114	-0.818784	5.002656	-69.909398	172.825376
51836		-0.026372	-0.573495	0.000189	-0.818784	4.999999	-69.908940	172.814189
51837		-0.026441	-0.573490	0.000243	-0.818786	4.998093	-69.908177	172.805968
51838		-0.026513	-0.573472	0.000305	-0.818796	4.994202	-69.905896	172.798784
51839		-0.026584	-0.573456	0.000330	-0.818805	5.000380	-69.903448	172.784776
51840		-0.026658	-0.573432	0.000356	-0.818820	5.006279	-69.899783	172.770599
51841		-0.026724	-0.573405	0.000368	-0.818836	5.014523	-69.895720	172.755895
51842		-0.026785	-0.573390	0.000385	-0.818845	5.020900	-69.893446	172.743100
51843		-0.026856	-0.573374	0.000409	-0.818854	5.027066	-69.890998	172.729105
51844		-0.026925	-0.573356	0.000454	-0.818864	5.027507	-69.888514	172.719263
51845		-0.026988	-0.573339	0.000478	-0.818874	5.032029	-69.885941	172.707528
51846		-0.027066	-0.573320	0.000528	-0.818885	5.032391	-69.883222	172.696617
51847		-0.027128	-0.573292	0.000575	-0.818902	5.030246	-69.879425	172.689831
51848		-0.027183	-0.573270	0.000622	-0.818915	5.027173	-69.876459	172.684479
51849		-0.027245	-0.573243	0.000669	-0.818932	5.025027	-69.872663	172.677696
51850		-0.027303	-0.573209	0.000702	-0.818954	5.025599	-69.867997	172.669609
51851		-0.027365	-0.573195	0.000736	-0.818961	5.027419	-69.865988	172.659810
51852		-0.027438	-0.573160	0.000769	-0.818984	5.031023	-69.860857	172.647541
51853		-0.027496	-0.573148	0.000779	-0.818990	5.038874	-69.859019	172.634031
51854		-0.027556	-0.573125	0.000795	-0.819004	5.044656	-69.855508	172.621976
51855		-0.027587	-0.573119	0.000819	-0.819007	5.043890	-69.854788	172.618171
51856		-0.027610	-0.573111	0.000826	-0.819012	5.046025	-69.853569	172.613568
51857		-0.027625	-0.573100	0.000824	-0.819020	5.049031	-69.851840	172.609527
51858		-0.027647	-0.573087	0.000825	-0.819028	5.052365	-69.849981	172.604260
51859		-0.027639	-0.573068	0.000814	-0.819041	5.053147	-69.847317	172.605050
51860		-0.027617	-0.573077	0.000805	-0.819036	5.051699	-69.848575	172.609022
51861		-0.027585	-0.573071	0.000776	-0.819041	5.053213	-69.847690	172.612651
51862		-0.027562	-0.573079	0.000750	-0.819036	5.056145	-69.848731	172.613621
51863		-0.027531	-0.573067	0.000701	-0.819046	5.063032	-69.846722	172.613411
51864		-0.027480	-0.573071	0.000658	-0.819045	5.065341	-69.847224	172.618851
51865		-0.027429	-0.573065	0.000621	-0.819050	5.065255	-69.846459	172.626088
51866		-0.027386	-0.573054	0.000584	-0.819060	5.066729	-69.844834	172.631169
51867		-0.027336	-0.573032	0.000550	-0.819077	5.065364	-69.841721	172.639500
51868		-0.027288	-0.573002	0.000534	-0.819099	5.059583	-69.837776	172.650591
51869		-0.027248	-0.572958	0.000499	-0.819132	5.059594	-69.831511	172.656735
51870		-0.027186	-0.572941	0.000466	-0.819146	5.055988	-69.829274	172.668167
51871		-0.027120	-0.572926	0.000410	-0.819158	5.058005	-69.827140	172.676065
51872		-0.027057	-0.572919	0.000354	-0.819165	5.060996	-69.826062	172.682897
51873		-0.026966	-0.572904	0.000292	-0.819179	5.059782	-69.823922	172.696649
51874		-0.026879	-0.572895	0.000231	-0.819188	5.059296	-69.822628	172.709383
51875		-0.026784	-0.572906	0.000181	-0.819183	5.055653	-69.824330	172.724999
51876		-0.026694	-0.572892	0.000113	-0.819196	5.056346	-69.822395	172.737291
51877		-0.026595	-0.572875	0.000052	-0.819211	5.053502	-69.820135	172.753293
51878		-0.026523	-0.572857	-0.000020	-0.819226	5.058455	-69.817422	172.760198
51879		-0.026421	-0.572833	-0.000066	-0.819246	5.050644	-69.814303	172.780228
51880		-0.026323	-0.572808	-0.000132	-0.819267	5.048938	-69.810783	172.795338
51881		-0.026214	-0.572793	-0.000200	-0.819281	5.046135	-69.808771	172.812697
51882		-0.026111	-0.572784	-0.000261	-0.819291	5.042689	-69.807615	172.829647
51883		-0.025995	-0.572767	-0.000329	-0.819306	5.038256	-69.805480	172.849253
51884		-0.025904	-0.572760	-0.000376	-0.819314	5.033599	-69.804552	172.865239
51885		-0.025787	-0.572730	-0.000432	-0.819338	5.025227	-69.800627	172.887834
51886		-0.025696	-0.572718	-0.000468	-0.819350	5.017392	-69.799221	172.906198
51887		-0.025595	-0.572687	-0.000535	-0.819374	5.014976	-69.794991	172.922378
51888		-0.025484	-0.572680	-0.000590	-0.819382	5.008684	-69.794250	172.942290
51889		-0.025382	-0.572673	-0.000638	-0.819390	5.002149	-69.793489	172.961243
51890		-0.025299	-0.572682	-0.000678	-0.819387	4.997496	-69.794887	172.975935
51891		-0.025197	-0.572689	-0.000738	-0.819385	4.994894	-69.795921	172.991912
51892		-0.025081	-0.572690	-0.000797	-0.819388	4.988990	-69.796228	173.012199
51893		-0.024990	-0.572678	-0.000849	-0.819399	4.985110	-69.794670	173.027876
51894		-0.024881	-0.572675	-0.000892	-0.819404	4.976193	-69.794559	173.049367
51895		-0.024799	-0.572661	-0.000937	-0.819417	4.972282	-69.792759	173.063683
51896		-0.024705	-0.572630	-0.000973	-0.819441	4.962900	-69.788753	173.083702
51897		-0.024620	-0.572609	-0.001003	-0.819458	4.954041	-69.786085	173.102025
51898		-0.024560	-0.572584	-0.001017	-0.819477	4.945675	-69.782850	173.116494
51899		-0.024487	-0.572558	-0.001033	-0.819497	4.935130	-69.779567	173.134330
51900		-0.024426	-0.572534	-0.001053	-0.819516	4.927952	-69.776390	173.148181
51901		-0.024387	-0.572507	-0.001073	-0.819536	4.924954	-69.772692	173.155998
51902		-0.024338	-0.572494	-0.001076	-0.819547	4.915865	-69.771158	173.169336
51903		-0.024310	-0.572482	-0.001091	-0.819556	4.914067	-69.769568	173.174747
51904		-0.024281	-0.572472	-0.001096	-0.819564	4.909789	-69.768290	173.181796
51905		-0.024255	-0.572457	-0.001104	-0.819575	4.906333	-69.766329	173.188085
51906		-0.024238	-0.572445	-0.001102	-0.819584	4.902053	-69.764749	173.193607
51907		-0.024218	-0.572435	-0.001100	-0.819592	4.897536	-69.763471	173.199573
51908		-0.024217	-0.572424	-0.001077	-0.819600	4.890420	-69.762089	173.204896
51909		-0.024204	-0.572405	-0.001054	-0.819613	4.880933	-69.759695	173.213495
51910		-0.024209	-0.572387	-0.001030	-0.819626	4.874938	-69.757384	173.217144
51911		-0.024227	-0.572362	-0.000986	-0.819642	4.865360	-69.754260	173.221647
51912		-0.024233	-0.572333	-0.000939	-0.819663	4.852577	-69.750450	173.229956
51913		-0.024259	-0.572310	-0.000895	-0.819678	4.844629	-69.747455	173.232215
51914		-0.024293	-0.572280	-0.000857	-0.819698	4.839484	-69.743471	173.231401
51915		-0.024312	-0.572270	-0.000808	-0.819705	4.829474	-69.742327	173.235746
51916		-0.024365	-0.572262	-0.000722	-0.819708	4.816005	-69.741666	173.237786
51917		-0.024408	-0.572239	-0.000672	-0.819724	4.809654	-69.738558	173.236436
51918		-0.024464	-0.572240	-0.000590	-0.819721	4.798169	-69.739106	173.236608
51919		-0.024526	-0.572206	-0.000494	-0.819743	4.782483	-69.734820	173.239312
51920		-0.024588	-0.572183	-0.000389	-0.819757	4.765076	-69.732153	173.242951
51921		-0.024657	-0.572154	-0.000284	-0.819775	4.748331	-69.728550	173.245331
51922		-0.024744	-0.572114	-0.000167	-0.819801	4.731446	-69.723378	173.245440
51923		-0.024814	-0.572068	-0.000042	-0.819831	4.709163	-69.717604	173.251623
51924		-0.024892	-0.572049	0.000057	-0.819842	4.696457	-69.715375	173.249795
51925		-0.024961	-0.572033	0.000150	-0.819850	4.683613	-69.713574	173.249231
51926		-0.025018	-0.571995	0.000249	-0.819876	4.666338	-69.708693	173.253688
51927		-0.025088	-0.571976	0.000332	-0.819887	4.656184	-69.706340	173.251202
51928		-0.025163	-0.571943	0.000426	-0.819908	4.643922	-69.702062	173.249565
51929		-0.025243	-0.571925	0.000526	-0.819917	4.631051	-69.700022	173.247635
51930		-0.025332	-0.571896	0.000633	-0.819935	4.617852	-69.696359	173.244718
51931		-0.025419	-0.571863	0.000735	-0.819955	4.605405	-69.692100	173.241561
51932		-0.025516	-0.571837	0.000842	-0.819970	4.593850	-69.688811	173.236282
51933		-0.025616	-0.571799	0.000958	-0.819993	4.579724	-69.683943	173.232631
51934		-0.025707	-0.571772	0.001045	-0.820009	4.572402	-69.680358	173.225263
51935		-0.025768	-0.571755	0.001139	-0.820019	4.557953	-69.678430	173.226924
51936		-0.025846	-0.571732	0.001211	-0.820032	4.552278	-69.675417	173.220299
51937		-0.025905	-0.571732	0.001285	-0.820031	4.543355	-69.675662	173.218169
51938		-0.025964	-0.571731	0.001358	-0.820029	4.534848	-69.675844	173.215895
51939		-0.026020	-0.571733	0.001408	-0.820026	4.531907	-69.676281	173.210108
51940		-0.026067	-0.571747	0.001477	-0.820014	4.522662	-69.678496	173.209727
51941		-0.026130	-0.571754	0.001537	-0.820007	4.518652	-69.679619	173.203628
51942		-0.026169	-0.571767	0.001611	-0.819997	4.506560	-69.681760	173.206475
51943		-0.026219	-0.571768	0.001679	-0.819995	4.497668	-69.682245	173.205709
51944		-0.026262	-0.571777	0.001740	-0.819987	4.489546	-69.683820	173.205186
51945		-0.026304	-0.571774	0.001798	-0.819987	4.481724	-69.683620	173.204732
51946		-0.026335	-0.571777	0.001852	-0.819984	4.473102	-69.684297	173.206374
51947		-0.026373	-0.571780	0.001896	-0.819981	4.468577	-69.684840	173.204182
51948		-0.026411	-0.571769	0.001950	-0.819987	4.460626	-69.683570	173.204512
51949		-0.026423	-0.571774	0.001998	-0.819983	4.450212	-69.684635	173.210066
51950		-0.026466	-0.571783	0.002043	-0.819975	4.446442	-69.686001	173.206585
51951		-0.026495	-0.571788	0.002097	-0.819971	4.437612	-69.686962	173.208547
51952		-0.026528	-0.571782	0.002154	-0.819974	4.428320	-69.686369	173.210427
51953		-0.026557	-0.571790	0.002218	-0.819967	4.416800	-69.687881	173.214312
51954		-0.026579	-0.571793	0.002266	-0.819964	4.407975	-69.688568	173.217368
51955		-0.026592	-0.571798	0.002331	-0.819960	4.393220	-69.689809	173.225718
51956		-0.026612	-0.571801	0.002383	-0.819957	4.382909	-69.690477	173.230157
51957		-0.026645	-0.571796	0.002424	-0.819960	4.377808	-69.689963	173.229142
51958		-0.026662	-0.571778	0.002487	-0.819971	4.363381	-69.687964	173.236926
51959		-0.026687	-0.571772	0.002529	-0.819974	4.356665	-69.687315	173.238141
51960		-0.026700	-0.571768	0.002577	-0.819977	4.345982	-69.687072	173.243831
51961		-0.026722	-0.571768	0.002621	-0.819976	4.338222	-69.687346	173.246103
51962		-0.026745	-0.571768	0.002665	-0.819975	4.330646	-69.687470	173.248199
51963		-0.026769	-0.571765	0.002717	-0.819976	4.321240	-69.687371	173.251338
51964		-0.026787	-0.571766	0.002768	-0.819974	4.310878	-69.687922	173.256013
51965		-0.026830	-0.571777	0.002814	-0.819966	4.306920	-69.689526	173.252654
51966		-0.026846	-0.571780	0.002863	-0.819963	4.296766	-69.690317	173.257466
51967		-0.026876	-0.571782	0.002907	-0.819960	4.290621	-69.690727	173.257509
51968		-0.026890	-0.571800	0.002954	-0.819947	4.281347	-69.693616	173.261797
51969		-0.026910	-0.571820	0.002989	-0.819932	4.276399	-69.696615	173.262229
51970		-0.026929	-0.571828	0.003029	-0.819926	4.269440	-69.697868	173.264362
51971		-0.026954	-0.571852	0.003056	-0.819908	4.267754	-69.701376	173.261698
51972		-0.026961	-0.571860	0.003056	-0.819902	4.269298	-69.702467	173.259545
51973		-0.026961	-0.571867	0.003080	-0.819897	4.263241	-69.703584	173.263682
51974		-0.026951	-0.571874	0.003079	-0.819893	4.261733	-69.704542	173.266151
51975		-0.026937	-0.571868	0.003073	-0.819898	4.260526	-69.703735	173.268966
51976		-0.026919	-0.571863	0.003074	-0.819901	4.256695	-69.703259	173.274243
51977		-0.026912	-0.571862	0.003077	-0.819902	4.254410	-69.703139	173.276755
51978		-0.026909	-0.571865	0.003071	-0.819900	4.255750	-69.703541	173.276237
51979		-0.026895	-0.571876	0.003063	-0.819893	4.255707	-69.705090	173.278080
51980		-0.026897	-0.571846	0.003041	-0.819914	4.260630	-69.700727	173.274782
51981		-0.026860	-0.571836	0.003037	-0.819922	4.254574	-69.699509	173.284289
51982		-0.026867	-0.571798	0.003031	-0.819949	4.255996	-69.694117	173.282610
51983		-0.026865	-0.571753	0.003027	-0.819980	4.255129	-69.687819	173.284071
51984		-0.026870	-0.571718	0.003019	-0.820005	4.256758	-69.682767	173.282567
51985		-0.026873	-0.571677	0.003007	-0.820033	4.259150	-69.676979	173.280935
51986		-0.026862	-0.571646	0.002983	-0.820055	4.262336	-69.672533	173.280656
51987		-0.026828	-0.571619	0.002928	-0.820075	4.269747	-69.668571	173.280530
51988		-0.026801	-0.571619	0.002906	-0.820076	4.270585	-69.668455	173.283755
51989		-0.026768	-0.571613	0.002876	-0.820082	4.272130	-69.667573	173.287377
51990		-0.026763	-0.571606	0.002838	-0.820087	4.281461	-69.666289	173.281554
51991		-0.026737	-0.571625	0.002826	-0.820074	4.280397	-69.668998	173.285832
51992		-0.026726	-0.571626	0.002803	-0.820074	4.284478	-69.669071	173.284482
51993		-0.026713	-0.571648	0.002773	-0.820059	4.290975	-69.671880	173.281516
51994		-0.026706	-0.571659	0.002747	-0.820052	4.297037	-69.673229	173.278179
51995		-0.026701	-0.571665	0.002719	-0.820048	4.303988	-69.673821	173.273952
51996		-0.026698	-0.571669	0.002691	-0.820045	4.311125	-69.674228	173.269372
51997		-0.026656	-0.571699	0.002668	-0.820026	4.310686	-69.678469	173.275216
51998		-0.026668	-0.571707	0.002655	-0.820020	4.316678	-69.679353	173.269274
51999		-0.026667	-0.571727	0.002649	-0.820006	4.318814	-69.682103	173.267730
52000		-0.026687	-0.571753	0.002649	-0.819987	4.323449	-69.685663	173.261494
52001		-0.026696	-0.571785	0.002638	-0.819965	4.329413	-69.689983	173.255687
52002		-0.026715	-0.571813	0.002638	-0.819945	4.334041	-69.693711	173.249534
52003		-0.026714	-0.571850	0.002630	-0.819919	4.337345	-69.698816	173.247017
52004		-0.026764	-0.571892	0.002627	-0.819888	4.349146	-69.704367	173.231335
52005		-0.026737	-0.571925	0.002603	-0.819866	4.351944	-69.708884	173.232716
52006		-0.026717	-0.571953	0.002551	-0.819847	4.363281	-69.712462	173.227342
52007		-0.026706	-0.571988	0.002526	-0.819823	4.369317	-69.717255	173.224256
52008		-0.026691	-0.572005	0.002483	-0.819812	4.378590	-69.719320	173.219834
52009		-0.026674	-0.572036	0.002466	-0.819791	4.381363	-69.723603	173.219845
52010		-0.026669	-0.572051	0.002446	-0.819781	4.386249	-69.725495	173.216978
52011		-0.026654	-0.572058	0.002411	-0.819776	4.393246	-69.726325	173.214103
52012		-0.026647	-0.572076	0.002422	-0.819764	4.389577	-69.728844	173.217445
52013		-0.026670	-0.572076	0.002380	-0.819764	4.405151	-69.728379	173.203507
52014		-0.026651	-0.572089	0.002362	-0.819755	4.406860	-69.730137	173.204804
52015		-0.026628	-0.572095	0.002328	-0.819752	4.412239	-69.730832	173.204164
52016		-0.026626	-0.572084	0.002302	-0.819759	4.418491	-69.729134	173.200179
52017		-0.026602	-0.572076	0.002262	-0.819766	4.424347	-69.727847	173.199648
52018		-0.026592	-0.572057	0.002231	-0.819780	4.429946	-69.724951	173.197389
52019		-0.026564	-0.572038	0.002196	-0.819794	4.433581	-69.722233	173.198898
52020		-0.026538	-0.572012	0.002156	-0.819813	4.438372	-69.718432	173.199488
52021		-0.026517	-0.571981	0.002116	-0.819835	4.444101	-69.713871	173.198875
52022		-0.026524	-0.571963	0.002091	-0.819848	4.451518	-69.711152	173.192877
52023		-0.026511	-0.571947	0.002038	-0.819859	4.462725	-69.708534	173.187135
52024		-0.026487	-0.571920	0.001983	-0.819879	4.471924	-69.704495	173.184367
52025		-0.026471	-0.571894	0.001935	-0.819898	4.480908	-69.700446	173.180667
52026		-0.026455	-0.571862	0.001892	-0.819921	4.488332	-69.695843	173.178094
52027		-0.026460	-0.571829	0.001847	-0.819944	4.499943	-69.690772	173.169744
52028		-0.026439	-0.571789	0.001802	-0.819973	4.506802	-69.684973	173.168255
52029		-0.026424	-0.571745	0.001756	-0.820004	4.514602	-69.678571	173.165547
52030		-0.026402	-0.571684	0.001706	-0.820047	4.521478	-69.669790	173.164468
52031		-0.026373	-0.571648	0.001656	-0.820073	4.528257	-69.664548	173.164193
52032		-0.026365	-0.571604	0.001614	-0.820104	4.536361	-69.658073	173.160161
52033		-0.026354	-0.571571	0.001580	-0.820128	4.542032	-69.653281	173.158217
52034		-0.026361	-0.571542	0.001541	-0.820148	4.552818	-69.648824	173.150048
52035		-0.026362	-0.571521	0.001519	-0.820163	4.557983	-69.645777	173.146628
52036		-0.026362	-0.571495	0.001470	-0.820181	4.570322	-69.641790	173.138271
52037		-0.026366	-0.571482	0.001433	-0.820190	4.580380	-69.639625	173.130908
52038		-0.026401	-0.571451	0.001407	-0.820210	4.592712	-69.634961	173.117794
52039		-0.026425	-0.571418	0.001387	-0.820233	4.601524	-69.629969	173.108687
52040		-0.026461	-0.571385	0.001382	-0.820254	4.608041	-69.625260	173.099599
52041		-0.026486	-0.571352	0.001379	-0.820276	4.612522	-69.620444	173.093273
52042		-0.026519	-0.571317	0.001379	-0.820299	4.617285	-69.615438	173.085778
52043		-0.026540	-0.571276	0.001373	-0.820327	4.621189	-69.609563	173.080631
52044		-0.026568	-0.571236	0.001366	-0.820355	4.626819	-69.603728	173.073263
52045		-0.026606	-0.571167	0.001390	-0.820401	4.624583	-69.594147	173.070314
52046		-0.026653	-0.571109	0.001397	-0.820440	4.629410	-69.585848	173.061057
52047		-0.026694	-0.571064	0.001404	-0.820470	4.633234	-69.579501	173.053197
52048		-0.026757	-0.571004	0.001417	-0.820510	4.639350	-69.570877	173.040846
52049		-0.026803	-0.570950	0.001429	-0.820546	4.642558	-69.563236	173.032804
52050		-0.026838	-0.570886	0.001439	-0.820589	4.643713	-69.554227	173.027942
52051		-0.026887	-0.570809	0.001451	-0.820641	4.646768	-69.543313	173.019843
52052		-0.026891	-0.570744	0.001452	-0.820687	4.644680	-69.534241	173.021439
52053		-0.026933	-0.570679	0.001452	-0.820730	4.649970	-69.524995	173.012685
52054		-0.026960	-0.570633	0.001454	-0.820761	4.652402	-69.518572	173.007832
52055		-0.026990	-0.570594	0.001465	-0.820787	4.653560	-69.513014	173.003268
52056		-0.027032	-0.570567	0.001465	-0.820804	4.660359	-69.509089	172.993003
52057		-0.027080	-0.570545	0.001480	-0.820819	4.664253	-69.505782	172.983888
52058		-0.027139	-0.570544	0.001505	-0.820817	4.668715	-69.505628	172.972589
52059		-0.027180	-0.570538	0.001536	-0.820820	4.667882	-69.504714	172.967461
52060		-0.027215	-0.570542	0.001555	-0.820816	4.669435	-69.505225	172.961437
52061		-0.027290	-0.570551	0.001579	-0.820807	4.677207	-69.506285	172.945429
52062		-0.027322	-0.570577	0.001600	-0.820788	4.678625	-69.509978	172.939748
52063		-0.027379	-0.570587	0.001618	-0.820779	4.684838	-69.511138	172.927312
52064		-0.027444	-0.570594	0.001645	-0.820772	4.689909	-69.511965	172.914647
52065		-0.027492	-0.570605	0.001657	-0.820763	4.696161	-69.513360	172.903570
52066		-0.027549	-0.570601	0.001653	-0.820764	4.707605	-69.512391	172.887623
52067		-0.027597	-0.570609	0.001655	-0.820757	4.716523	-69.513235	172.874648
52068		-0.027643	-0.570581	0.001641	-0.820774	4.727475	-69.509022	172.861055
52069		-0.027701	-0.570570	0.001651	-0.820780	4.735168	-69.507278	172.847710
52070		-0.027746	-0.570556	0.001663	-0.820788	4.739813	-69.505145	172.838394
52071		-0.027802	-0.570535	0.001678	-0.820801	4.745290	-69.501971	172.827083
52072		-0.027862	-0.570501	0.001686	-0.820823	4.753164	-69.496989	172.813636
52073		-0.027905	-0.570467	0.001688	-0.820845	4.759122	-69.492071	172.803826
52074		-0.027955	-0.570419	0.001669	-0.820877	4.771593	-69.484899	172.788855
52075		-0.027967	-0.570359	0.001648	-0.820918	4.776917	-69.476356	172.784259
52076		-0.027993	-0.570319	0.001623	-0.820945	4.786984	-69.470393	172.774107
52077		-0.028017	-0.570278	0.001564	-0.820972	4.805270	-69.464111	172.758623
52078		-0.027999	-0.570255	0.001519	-0.820989	4.813219	-69.460672	172.755793
52079		-0.027991	-0.570213	0.001473	-0.821019	4.822451	-69.454401	172.751053
52080		-0.027973	-0.570186	0.001422	-0.821038	4.831608	-69.450317	172.747588
52081		-0.027940	-0.570156	0.001357	-0.821060	4.841530	-69.445812	172.745752
52082		-0.027887	-0.570127	0.001278	-0.821082	4.851391	-69.441384	172.746702
52083		-0.027852	-0.570100	0.001223	-0.821102	4.858654	-69.437432	172.746759
52084		-0.027805	-0.570069	0.001159	-0.821126	4.865780	-69.432740	172.748786
52085		-0.027759	-0.570047	0.001090	-0.821142	4.874716	-69.429397	172.749353
52086		-0.027688	-0.570043	0.001003	-0.821148	4.884682	-69.428495	172.752463
52087		-0.027630	-0.570026	0.000937	-0.821161	4.891003	-69.425941	172.756276
52088		-0.027583	-0.570013	0.000865	-0.821172	4.900736	-69.423722	172.756339
52089		-0.027534	-0.569994	0.000789	-0.821187	4.911301	-69.420754	172.756066
52090		-0.027472	-0.569956	0.000710	-0.821216	4.919062	-69.415083	172.759881
52091		-0.027436	-0.569929	0.000638	-0.821236	4.930596	-69.410960	172.757227
52092		-0.027396	-0.569905	0.000556	-0.821253	4.944072	-69.407219	172.753815
52093		-0.027351	-0.569867	0.000506	-0.821282	4.947518	-69.401715	172.758129
52094		-0.027341	-0.569822	0.000463	-0.821313	4.955357	-69.395118	172.754700
52095		-0.027328	-0.569802	0.000399	-0.821327	4.969002	-69.391952	172.747326
52096		-0.027298	-0.569786	0.000340	-0.821339	4.978617	-69.389384	172.745029
52097		-0.027251	-0.569768	0.000281	-0.821354	4.984882	-69.386604	172.747509
52098		-0.027205	-0.569760	0.000199	-0.821361	4.998002	-69.385044	172.744961
52099		-0.027148	-0.569757	0.000121	-0.821365	5.008148	-69.384302	172.745930
52100		-0.027112	-0.569755	0.000061	-0.821367	5.017373	-69.383740	172.744619
52101		-0.027078	-0.569725	-0.000004	-0.821389	5.027251	-69.379254	172.742847
52102		-0.027015	-0.569723	-0.000071	-0.821392	5.033309	-69.378762	172.747506
52103		-0.026986	-0.569688	-0.000122	-0.821418	5.039920	-69.373535	172.747434
52104		-0.026946	-0.569664	-0.000166	-0.821436	5.043330	-69.370064	172.750969
52105		-0.026903	-0.569653	-0.000223	-0.821445	5.050163	-69.368348	172.752289
52106		-0.026877	-0.569647	-0.000287	-0.821450	5.061982	-69.367065	172.747900
52107		-0.026843	-0.569634	-0.000354	-0.821460	5.073045	-69.364934	172.745146
52108		-0.026813	-0.569626	-0.000398	-0.821466	5.079048	-69.363635	172.745292
52109		-0.026761	-0.569617	-0.000462	-0.821474	5.085920	-69.362160	172.747975
52110		-0.026703	-0.569607	-0.000497	-0.821483	5.084182	-69.360838	172.757317
52111		-0.026656	-0.569589	-0.000556	-0.821497	5.090435	-69.358071	172.759822
52112		-0.026594	-0.569589	-0.000611	-0.821499	5.093642	-69.357911	172.766268
52113		-0.026538	-0.569589	-0.000662	-0.821501	5.096857	-69.357912	172.771855
52114		-0.026502	-0.569586	-0.000716	-0.821504	5.104669	-69.357250	172.771449
52115		-0.026464	-0.569587	-0.000761	-0.821505	5.109428	-69.357148	172.773478
52116		-0.026435	-0.569579	-0.000805	-0.821511	5.115461	-69.355871	172.773514
52117		-0.026399	-0.569590	-0.000854	-0.821504	5.122425	-69.357198	172.773524
52118		-0.026376	-0.569576	-0.000914	-0.821515	5.133574	-69.354835	172.769266
52119		-0.026335	-0.569548	-0.000952	-0.821535	5.134933	-69.350959	172.774315
52120		-0.026316	-0.569526	-0.000993	-0.821552	5.141398	-69.347549	172.772787
52121		-0.026291	-0.569501	-0.001031	-0.821570	5.145929	-69.343942	172.773434
52122		-0.026278	-0.569474	-0.001062	-0.821589	5.150561	-69.340007	172.772459
52123		-0.026275	-0.569460	-0.001081	-0.821599	5.154566	-69.337901	172.770243
52124		-0.026280	-0.569432	-0.001110	-0.821617	5.162222	-69.333817	172.764562
52125		-0.026275	-0.569421	-0.001137	-0.821625	5.167855	-69.332084	172.761506
52126		-0.026294	-0.569395	-0.001142	-0.821642	5.171461	-69.328318	172.756777
52127		-0.026304	-0.569373	-0.001157	-0.821657	5.176428	-69.325053	172.752185
52128		-0.026334	-0.569331	-0.001174	-0.821686	5.184798	-69.318895	172.742806
52129		-0.026344	-0.569292	-0.001187	-0.821712	5.188567	-69.313281	172.739215
52130		-0.026370	-0.569248	-0.001207	-0.821742	5.196600	-69.306875	172.730674
52131		-0.026401	-0.569185	-0.001214	-0.821784	5.201712	-69.297886	172.723508
52132		-0.026434	-0.569144	-0.001219	-0.821812	5.207238	-69.291880	172.715709
52133		-0.026478	-0.569090	-0.001224	-0.821848	5.214497	-69.284080	172.705182
52134		-0.026511	-0.569040	-0.001249	-0.821881	5.225000	-69.276821	172.694055
52135		-0.026535	-0.568997	-0.001231	-0.821911	5.222817	-69.270776	172.692672
52136		-0.026576	-0.568954	-0.001230	-0.821939	5.228261	-69.264636	172.683733
52137		-0.026617	-0.568913	-0.001212	-0.821966	5.229234	-69.258858	172.677964
52138		-0.026663	-0.568868	-0.001202	-0.821996	5.233103	-69.252321	172.669429
52139		-0.026695	-0.568842	-0.001186	-0.822012	5.233689	-69.248758	172.664862
52140		-0.026739	-0.568795	-0.001172	-0.822043	5.236081	-69.242117	172.657682
52141		-0.026775	-0.568743	-0.001166	-0.822078	5.239098	-69.234735	172.651241
52142		-0.026797	-0.568698	-0.001167	-0.822109	5.241280	-69.228273	172.647235
52143		-0.026801	-0.568658	-0.001162	-0.822137	5.239184	-69.222705	172.648569
52144		-0.026818	-0.568627	-0.001157	-0.822157	5.239632	-69.218418	172.646321
52145		-0.026834	-0.568599	-0.001140	-0.822176	5.237059	-69.214590	172.646143
52146		-0.026850	-0.568581	-0.001115	-0.822188	5.232482	-69.212195	172.647400
52147		-0.026866	-0.568556	-0.001089	-0.822205	5.227285	-69.208916	172.649074
52148		-0.026873	-0.568539	-0.001048	-0.822217	5.217098	-69.206823	172.655259
52149		-0.026887	-0.568531	-0.001040	-0.822222	5.217343	-69.205714	172.653250
52150		-0.026900	-0.568511	-0.001028	-0.822235	5.215575	-69.202949	172.652909
52151		-0.026889	-0.568506	-0.000999	-0.822239	5.205849	-69.202537	172.661173
52152		-0.026888	-0.568494	-0.000975	-0.822247	5.198811	-69.201170	172.666336
52153		-0.026880	-0.568482	-0.000950	-0.822256	5.190090	-69.199836	172.673581
52154		-0.026902	-0.568476	-0.000906	-0.822260	5.182332	-69.199138	172.676017
52155		-0.026893	-0.568484	-0.000873	-0.822254	5.172173	-69.200700	172.684128
52156		-0.026915	-0.568484	-0.000841	-0.822254	5.167766	-69.200747	172.684124
52157		-0.026912	-0.568480	-0.000813	-0.822257	5.159616	-69.200467	172.690197
52158		-0.026913	-0.568496	-0.000795	-0.822245	5.155978	-69.202909	172.692264
52159		-0.026897	-0.568500	-0.000771	-0.822243	5.146869	-69.203787	172.700713
52160		-0.026898	-0.568499	-0.000753	-0.822243	5.142019	-69.203825	172.703970
52161		-0.026906	-0.568490	-0.000728	-0.822249	5.136447	-69.202759	172.706834
52162		-0.026909	-0.568470	-0.000701	-0.822263	5.129063	-69.200204	172.711747
52163		-0.026922	-0.568452	-0.000671	-0.822275	5.122880	-69.197846	172.714422
52164		-0.026937	-0.568404	-0.000649	-0.822308	5.117853	-69.191323	172.716378
52165		-0.026953	-0.568380	-0.000623	-0.822325	5.112678	-69.188044	172.718029
52166		-0.026937	-0.568365	-0.000613	-0.822335	5.106836	-69.186171	172.724386
52167		-0.026936	-0.568351	-0.000615	-0.822345	5.106568	-69.184245	172.724893
52168		-0.026910	-0.568332	-0.000618	-0.822359	5.101721	-69.181695	172.732109
52169		-0.026888	-0.568311	-0.000612	-0.822374	5.095122	-69.178990	172.740007
52170		-0.026851	-0.568293	-0.000605	-0.822388	5.086024	-69.176889	172.751618
52171		-0.026818	-0.568278	-0.000596	-0.822400	5.076850	-69.174966	172.762720
52172		-0.026774	-0.568246	-0.000576	-0.822423	5.062405	-69.171009	172.779099
52173		-0.026750	-0.568228	-0.000577	-0.822436	5.057432	-69.168675	172.786159
52174		-0.026738	-0.568214	-0.000565	-0.822446	5.051663	-69.166906	172.791940
52175		-0.026723	-0.568198	-0.000549	-0.822458	5.044020	-69.164882	172.799495
52176		-0.026708	-0.568179	-0.000529	-0.822471	5.035116	-69.162563	172.807937
52177		-0.026688	-0.568155	-0.000515	-0.822489	5.026918	-69.159482	172.816648
52178		-0.026649	-0.568143	-0.000506	-0.822498	5.016829	-69.158179	172.829238
52179		-0.026599	-0.568128	-0.000486	-0.822510	5.001908	-69.156524	172.846547
52180		-0.026560	-0.568125	-0.000473	-0.822513	4.991123	-69.156557	172.859534
52181		-0.026548	-0.568100	-0.000470	-0.822531	4.987129	-69.153067	172.864199
52182		-0.026492	-0.568109	-0.000474	-0.822527	4.978390	-69.154701	172.877846
52183		-0.026480	-0.568104	-0.000462	-0.822531	4.972927	-69.154106	172.883408
52184		-0.026462	-0.568100	-0.000461	-0.822534	4.969185	-69.153669	172.888472
52185		-0.026463	-0.568103	-0.000448	-0.822532	4.965845	-69.154268	172.890697
52186		-0.026454	-0.568091	-0.000429	-0.822540	4.958696	-69.152797	172.897026
52187		-0.026452	-0.568087	-0.000383	-0.822543	4.946321	-69.152682	172.905767
52188		-0.026443	-0.568060	-0.000363	-0.822562	4.938275	-69.149187	172.912856
52189		-0.026462	-0.568046	-0.000341	-0.822571	4.935305	-69.147339	172.912490
52190		-0.026466	-0.568040	-0.000309	-0.822575	4.927461	-69.146707	172.917367
52191		-0.026484	-0.568029	-0.000277	-0.822582	4.921864	-69.145404	172.918856
52192		-0.026483	-0.568035	-0.000255	-0.822578	4.916032	-69.146379	172.922929
52193		-0.026496	-0.568034	-0.000227	-0.822579	4.911032	-69.146368	172.924623
52194		-0.026515	-0.568038	-0.000214	-0.822575	4.911054	-69.146998	172.921879
52195		-0.026513	-0.568045	-0.000208	-0.822570	4.909324	-69.147971	172.923281
52196		-0.026529	-0.568030	-0.000204	-0.822580	4.910728	-69.145783	172.920273
52197		-0.026528	-0.568036	-0.000181	-0.822576	4.904757	-69.146926	172.924356
52198		-0.026528	-0.568042	-0.000158	-0.822572	4.898939	-69.147920	172.928295
52199		-0.026533	-0.568057	-0.000132	-0.822562	4.893517	-69.150120	172.931229
52200		-0.026550	-0.568057	-0.000092	-0.822561	4.886164	-69.150411	172.933848
52201		-0.026563	-0.568056	-0.000065	-0.822561	4.881164	-69.150400	172.935542
52202		-0.026567	-0.568049	-0.000048	-0.822566	4.877345	-69.149629	172.937644
52203		-0.026596	-0.568051	-0.000021	-0.822564	4.875478	-69.149897	172.934974
52204		-0.026618	-0.568041	-0.000009	-0.822570	4.875808	-69.148441	172.931744
52205		-0.026647	-0.568008	0.000022	-0.822592	4.871656	-69.144010	172.930952
52206		-0.026694	-0.567981	0.000058	-0.822609	4.869620	-69.140323	172.926123
52207		-0.026740	-0.567965	0.000094	-0.822618	4.868130	-69.138147	172.920854
52208		-0.026790	-0.567954	0.000135	-0.822624	4.865908	-69.136627	172.915571
52209		-0.026826	-0.567957	0.000161	-0.822621	4.865605	-69.137036	172.910722
52210		-0.026852	-0.567959	0.000180	-0.822619	4.865492	-69.137395	172.907218
52211		-0.026863	-0.567958	0.000190	-0.822619	4.864731	-69.137214	172.906233
52212		-0.026893	-0.567940	0.000219	-0.822630	4.861900	-69.134910	172.904227
52213		-0.026924	-0.567953	0.000241	-0.822621	4.862190	-69.136611	172.899589
52214		-0.026955	-0.567945	0.000265	-0.822625	4.861255	-69.135578	172.895917
52215		-0.026985	-0.567940	0.000272	-0.822627	4.864642	-69.134759	172.889538
52216		-0.026999	-0.567938	0.000278	-0.822628	4.865513	-69.134481	172.886907
52217		-0.027015	-0.567944	0.000291	-0.822623	4.865301	-69.135358	172.884775
52218		-0.027031	-0.567956	0.000308	-0.822615	4.864276	-69.137007	172.883152
52219		-0.027049	-0.567990	0.000313	-0.822591	4.867365	-69.141666	172.878113
52220		-0.027063	-0.567998	0.000319	-0.822585	4.868909	-69.142691	172.874971
52221		-0.027069	-0.568019	0.000312	-0.822570	4.872514	-69.145608	172.871402
52222		-0.027048	-0.568049	0.000308	-0.822550	4.870982	-69.149853	172.874982
52223		-0.027030	-0.568070	0.000313	-0.822536	4.867259	-69.152894	172.879816
52224		-0.027016	-0.568100	0.000313	-0.822516	4.865846	-69.157145	172.882487
52225		-0.027001	-0.568129	0.000303	-0.822497	4.866911	-69.161074	172.883494
52226		-0.026988	-0.568168	0.000286	-0.822470	4.870518	-69.166447	172.882322
52227		-0.026975	-0.568210	0.000281	-0.822441	4.871112	-69.172354	172.883217
52228		-0.026938	-0.568237	0.000261	-0.822424	4.870692	-69.176157	172.888347
52229		-0.026895	-0.568268	0.000238	-0.822404	4.870276	-69.180415	172.894259
52230		-0.026864	-0.568283	0.000229	-0.822395	4.867617	-69.182617	172.900286
52231		-0.026816	-0.568302	0.000193	-0.822383	4.869283	-69.185274	172.905487
52232		-0.026765	-0.568313	0.000170	-0.822377	4.866269	-69.186844	172.914519
52233		-0.026722	-0.568329	0.000159	-0.822367	4.862073	-69.189297	172.923234
52234		-0.026676	-0.568342	0.000118	-0.822360	4.864858	-69.190932	172.927626
52235		-0.026618	-0.568335	0.000099	-0.822366	4.859017	-69.190209	172.939783
52236		-0.026574	-0.568351	0.000049	-0.822357	4.864906	-69.192213	172.941666
52237		-0.026540	-0.568345	0.000019	-0.822362	4.866409	-69.191371	172.945406
52238		-0.026495	-0.568351	-0.000042	-0.822360	4.874431	-69.191839	172.946145
52239		-0.026466	-0.568335	-0.000067	-0.822371	4.875344	-69.189706	172.949671
52240		-0.026449	-0.568334	-0.000103	-0.822373	4.881551	-69.189233	172.947801
52241		-0.026437	-0.568318	-0.000139	-0.822384	4.888237	-69.186840	172.945097
52242		-0.026412	-0.568306	-0.000190	-0.822393	4.896705	-69.184898	172.942848
52243		-0.026399	-0.568287	-0.000253	-0.822407	4.910268	-69.181795	172.935602
52244		-0.026364	-0.568268	-0.000327	-0.822421	4.922593	-69.178734	172.932184
52245		-0.026347	-0.568235	-0.000413	-0.822445	4.940866	-69.173488	172.922374
52246		-0.026297	-0.568199	-0.000526	-0.822471	4.960278	-69.167835	172.916411
52247		-0.026240	-0.568155	-0.000638	-0.822503	4.977570	-69.161178	172.912997
52248		-0.026161	-0.568099	-0.000801	-0.822544	5.004065	-69.152450	172.906501
52249		-0.026044	-0.568049	-0.001022	-0.822582	5.038984	-69.144325	172.899325
52250		-0.025896	-0.567992	-0.001296	-0.822625	5.081920	-69.135075	172.891208
52251		-0.025698	-0.567929	-0.001617	-0.822675	5.128122	-69.124700	172.887687
52252		-0.025451	-0.567906	-0.001976	-0.822698	5.176941	-69.119983	172.888794
52253		-0.025135	-0.567897	-0.002350	-0.822713	5.217485	-69.117509	172.905116
52254		-0.024751	-0.567929	-0.002730	-0.822701	5.249213	-69.121108	172.936381
52255		-0.024355	-0.567957	-0.003107	-0.822692	5.277543	-69.124354	172.971735
52256		-0.023922	-0.567989	-0.003454	-0.822681	5.291725	-69.128556	173.021832
52257		-0.023454	-0.568032	-0.003782	-0.822664	5.294975	-69.134755	173.084173
52258		-0.022988	-0.568081	-0.004094	-0.822641	5.294463	-69.142038	173.148820
52259		-0.022539	-0.568128	-0.004389	-0.822620	5.292312	-69.148884	173.212233
52260		-0.022086	-0.568181	-0.004650	-0.822594	5.280817	-69.156997	173.282695
52261		-0.021652	-0.568236	-0.004908	-0.822566	5.272231	-69.165393	173.348224
52262		-0.021239	-0.568292	-0.005180	-0.822536	5.270924	-69.173613	173.406000
52263		-0.020829	-0.568369	-0.005441	-0.822492	5.268094	-69.184810	173.464156
52264		-0.020424	-0.568446	-0.005704	-0.822447	5.266806	-69.196000	173.520455
52265		-0.020036	-0.568548	-0.005958	-0.822385	5.267085	-69.210538	173.573105
52266		-0.019672	-0.568652	-0.006197	-0.822320	5.267794	-69.225484	173.622182
52267		-0.019328	-0.568771	-0.006423	-0.822243	5.269497	-69.242494	173.667391
52268		-0.018956	-0.568886	-0.006647	-0.822171	5.265183	-69.258989	173.720900
52269		-0.018581	-0.568999	-0.006872	-0.822099	5.260485	-69.275469	173.775009
52270		-0.018223	-0.569099	-0.007112	-0.822037	5.262143	-69.289710	173.822612
52271		-0.017867	-0.569192	-0.007338	-0.821978	5.260444	-69.303226	173.872284
52272		-0.017548	-0.569266	-0.007565	-0.821931	5.265056	-69.313925	173.912727
52273		-0.017239	-0.569320	-0.007778	-0.821898	5.266823	-69.321769	173.953842
52274		-0.016968	-0.569371	-0.007993	-0.821866	5.276031	-69.329073	173.984769
52275		-0.016719	-0.569412	-0.008191	-0.821842	5.284522	-69.334793	174.013044
52276		-0.016503	-0.569451	-0.008379	-0.821817	5.296321	-69.340281	174.034560
52277		-0.016316	-0.569481	-0.008535	-0.821798	5.304632	-69.344546	174.054541
52278		-0.016156	-0.569500	-0.008695	-0.821787	5.318358	-69.347040	174.067163
52279		-0.016030	-0.569520	-0.008810	-0.821774	5.326501	-69.349840	174.078831
52280		-0.015909	-0.569524	-0.008925	-0.821772	5.335105	-69.350301	174.089641
52281		-0.015820	-0.569527	-0.009024	-0.821771	5.345266	-69.350537	174.095018
52282		-0.015744	-0.569519	-0.009115	-0.821777	5.355076	-69.349352	174.098940
52283		-0.015676	-0.569501	-0.009198	-0.821789	5.364089	-69.346742	174.102431
52284		-0.015608	-0.569463	-0.009270	-0.821816	5.369234	-69.341334	174.108682
52285		-0.015535	-0.569451	-0.009368	-0.821825	5.381464	-69.339501	174.110550
52286		-0.015483	-0.569425	-0.009478	-0.821843	5.400202	-69.335378	174.105203
52287		-0.015410	-0.569410	-0.009586	-0.821853	5.415085	-69.333019	174.105202
52288		-0.015365	-0.569403	-0.009688	-0.821858	5.433569	-69.331565	174.098875
52289		-0.015328	-0.569391	-0.009773	-0.821866	5.448900	-69.329523	174.093577
52290		-0.015311	-0.569375	-0.009840	-0.821877	5.463023	-69.326958	174.086396
52291		-0.015269	-0.569341	-0.009916	-0.821900	5.474061	-69.322034	174.085011
52292		-0.015233	-0.569307	-0.010003	-0.821923	5.489538	-69.316880	174.079743
52293		-0.015163	-0.569272	-0.010102	-0.821947	5.501698	-69.311785	174.081472
52294		-0.015084	-0.569225	-0.010234	-0.821980	5.520169	-69.304812	174.080344
52295		-0.015010	-0.569203	-0.010379	-0.821994	5.544593	-69.301265	174.073952
52296		-0.014917	-0.569184	-0.010538	-0.822008	5.569097	-69.298069	174.070247
52297		-0.014824	-0.569176	-0.010720	-0.822012	5.599971	-69.296321	174.062014
52298		-0.014692	-0.569191	-0.010925	-0.822001	5.630720	-69.297869	174.058969
52299		-0.014540	-0.569228	-0.011117	-0.821976	5.655451	-69.302621	174.062650
52300		-0.014384	-0.569267	-0.011318	-0.821949	5.681775	-69.307667	174.065651
52301		-0.014216	-0.569304	-0.011500	-0.821923	5.700696	-69.312685	174.075614
52302		-0.014016	-0.569339	-0.011708	-0.821900	5.720663	-69.317431	174.089252
52303		-0.013818	-0.569396	-0.011906	-0.821861	5.739162	-69.325185	174.103312
52304		-0.013633	-0.569449	-0.012096	-0.821824	5.757667	-69.332582	174.115681
52305		-0.013437	-0.569523	-0.012278	-0.821774	5.773005	-69.342850	174.131542
52306		-0.013229	-0.569604	-0.012447	-0.821718	5.783032	-69.354400	174.152585
52307		-0.013014	-0.569695	-0.012639	-0.821656	5.797906	-69.367157	174.171169
52308		-0.012837	-0.569797	-0.012839	-0.821585	5.822607	-69.381147	174.177517
52309		-0.012612	-0.569917	-0.013061	-0.821502	5.845038	-69.397835	174.191954
52310		-0.012392	-0.570030	-0.013301	-0.821423	5.872896	-69.413338	174.201942
52311		-0.012133	-0.570158	-0.013551	-0.821334	5.897017	-69.431196	174.219763
52312		-0.011837	-0.570275	-0.013826	-0.821252	5.920180	-69.447725	174.243588
52313		-0.011495	-0.570382	-0.014145	-0.821177	5.946524	-69.462787	174.271736
52314		-0.011138	-0.570491	-0.014508	-0.821100	5.981696	-69.477896	174.295769
52315		-0.010743	-0.570613	-0.014912	-0.821014	6.021537	-69.494922	174.321699
52316		-0.010294	-0.570717	-0.015345	-0.820939	6.058390	-69.509681	174.357564
52317		-0.009811	-0.570810	-0.015891	-0.820870	6.118656	-69.522511	174.381979
52318		-0.009211	-0.570876	-0.016521	-0.820819	6.178988	-69.531811	174.422927
52319		-0.008548	-0.570887	-0.017263	-0.820803	6.255356	-69.533389	174.462186
52320		-0.007793	-0.570878	-0.018112	-0.820798	6.342582	-69.532158	174.507067
52321		-0.006900	-0.570853	-0.019044	-0.820803	6.426031	-69.529434	174.573891
52322		-0.005882	-0.570825	-0.020080	-0.820805	6.514018	-69.526825	174.655054
52323		-0.004710	-0.570817	-0.021230	-0.820789	6.604680	-69.527622	174.755629
52324		-0.003363	-0.570812	-0.022516	-0.820765	6.699718	-69.529706	174.877402
52325		-0.001860	-0.570832	-0.023875	-0.820718	6.786286	-69.536435	175.026447
52326		-0.000278	-0.570864	-0.025318	-0.820654	6.881533	-69.545417	175.180337
52327		0.001393	-0.570892	-0.026823	-0.820585	6.977035	-69.554783	175.346333
52328		0.003148	-0.570917	-0.028383	-0.820511	7.071531	-69.564578	175.524762
52329		0.005024	-0.570951	-0.030060	-0.820418	7.175307	-69.576623	175.713501
52330		0.007030	-0.570981	-0.031820	-0.820316	7.277517	-69.589437	175.921514
52331		0.009173	-0.570962	-0.033685	-0.820234	7.380755	-69.596843	176.148332
52332		0.011460	-0.570896	-0.035692	-0.820166	7.493895	-69.599187	176.388870
52333		0.013897	-0.570822	-0.037806	-0.820085	7.607761	-69.602310	176.649941
52334		0.016436	-0.570805	-0.040011	-0.819946	7.729647	-69.614992	176.918765
52335		0.019108	-0.570889	-0.042289	-0.819715	7.850371	-69.643793	177.205756
52336		0.021878	-0.571072	-0.044654	-0.819393	7.980024	-69.688267	177.498845
52337		0.024783	-0.571344	-0.047060	-0.818985	8.098441	-69.747722	177.817605
52338		0.027792	-0.571726	-0.049463	-0.818481	8.199635	-69.824794	178.161801
52339		0.030912	-0.572182	-0.051861	-0.817901	8.280563	-69.914861	178.534782
52340		0.034060	-0.572704	-0.054201	-0.817259	8.341392	-70.015864	178.925311
52341		0.037257	-0.573263	-0.056541	-0.816569	8.392572	-70.123931	179.329337
52342		0.040496	-0.573857	-0.058818	-0.815836	8.417746	-70.238868	179.757608
52343		0.043783	-0.574409	-0.061044	-0.815114	8.416128	-70.349722	-179.787560
52344		0.047103	-0.574890	-0.063209	-0.814425	8.386488	-70.452357	-179.306963
52345		0.050534	-0.575246	-0.065355	-0.813798	8.324397	-70.539876	-178.786042
52346		0.054103	-0.575377	-0.067492	-0.813301	8.224912	-70.598328	-178.216609
52347		0.057797	-0.575298	-0.069606	-0.812925	8.088500	-70.629588	-177.601336
52348		0.061667	-0.575060	-0.071671	-0.812630	7.899893	-70.641056	-176.922926
52349		0.065692	-0.574645	-0.073699	-0.812426	7.667269	-70.629921	-176.190083
52350		0.069899	-0.574128	-0.075683	-0.812258	7.385985	-70.606501	-175.396849
52351		0.074250	-0.573550	-0.077631	-0.812097	7.067292	-70.576123	-174.556868
52352		0.078739	-0.572967	-0.079519	-0.811902	6.706466	-70.546064	-173.667895
52353		0.083325	-0.572428	-0.081353	-0.811643	6.312753	-70.522435	-172.742364
52354		0.087960	-0.571962	-0.083140	-0.811302	5.897500	-70.508893	-171.794923
52355		0.092650	-0.571578	-0.084976	-0.810860	5.484706	-70.507523	-170.841317
52356		0.097389	-0.571246	-0.086864	-0.810338	5.075825	-70.514234	-169.883179
52357		0.102168	-0.570959	-0.088799	-0.809742	4.670152	-70.527939	-168.920778
52358		0.106976	-0.570667	-0.090810	-0.809103	4.278891	-70.542187	-167.963637
52359		0.111733	-0.570502	-0.093013	-0.808326	3.945775	-70.577021	-167.053210
52360		0.116304	-0.570505	-0.095377	-0.807404	3.685392	-70.637672	-166.217881
52361		0.120576	-0.570567	-0.097969	-0.806422	3.543272	-70.710476	-165.506585
52362		0.124413	-0.570681	-0.100655	-0.805428	3.509669	-70.791822	-164.932257
52363		0.127813	-0.570758	-0.103271	-0.804509	3.544468	-70.866605	-164.468019
52364		0.130967	-0.570632	-0.105795	-0.803763	3.611807	-70.911805	-164.063399
52365		0.134066	-0.570368	-0.108249	-0.803112	3.675683	-70.937614	-163.664922
52366		0.137199	-0.570037	-0.110641	-0.802492	3.718008	-70.954393	-163.246614
52367		0.140440	-0.569738	-0.112926	-0.801825	3.705243	-70.975453	-162.773008
52368		0.143793	-0.569455	-0.115137	-0.801116	3.646815	-70.998841	-162.250202
52369		0.147268	-0.569168	-0.117336	-0.800370	3.558522	-71.023139	-161.688198
52370		0.150839	-0.568843	-0.119547	-0.799609	3.454565	-71.043920	-161.100922
52371		0.154545	-0.568428	-0.121849	-0.798848	3.352274	-71.056211	-160.495675
52372		0.158341	-0.567948	-0.124284	-0.798071	3.270821	-71.064362	-159.892066
52373		0.162236	-0.567401	-0.126894	-0.797267	3.221536	-71.069462	-159.296935
52374		0.166282	-0.566853	-0.129679	-0.796374	3.188031	-71.081507	-158.689991
52375		0.170429	-0.566326	-0.132607	-0.795389	3.170250	-71.102526	-158.077953
52376		0.174665	-0.565895	-0.135631	-0.794266	3.151728	-71.142089	-157.449587
52377		0.178911	-0.565624	-0.138697	-0.792984	3.127435	-71.207341	-156.811438
52378		0.183128	-0.565456	-0.141775	-0.791595	3.101317	-71.289384	-156.172860
52379		0.187262	-0.565291	-0.144829	-0.790192	3.081469	-71.373134	-155.549054
52380		0.191366	-0.565075	-0.147930	-0.788788	3.081382	-71.453494	-154.942754
52381		0.195424	-0.564769	-0.151103	-0.787409	3.115294	-71.525952	-154.367231
52382		0.199451	-0.564356	-0.154373	-0.786060	3.189013	-71.589041	-153.824773
52383		0.203437	-0.563821	-0.157666	-0.784768	3.286230	-71.638382	-153.306055
52384		0.207420	-0.563229	-0.160952	-0.783482	3.384792	-71.682473	-152.788496
52385		0.211389	-0.562541	-0.164185	-0.782244	3.478023	-71.714053	-152.269874
52386		0.215363	-0.561767	-0.167277	-0.781060	3.537124	-71.731532	-151.727170
52387		0.219345	-0.560971	-0.170222	-0.779887	3.553105	-71.743322	-151.152182
52388		0.223372	-0.560210	-0.173121	-0.778652	3.541215	-71.760707	-150.548798
52389		0.227469	-0.559552	-0.175971	-0.777299	3.486509	-71.793095	-149.900579
52390		0.231573	-0.558964	-0.178790	-0.775865	3.411778	-71.835938	-149.234087
52391		0.235741	-0.558475	-0.181609	-0.774306	3.307659	-71.894583	-148.532564
52392		0.240003	-0.558055	-0.184402	-0.772638	3.162872	-71.964076	-147.784159
52393		0.244374	-0.557647	-0.187182	-0.770892	2.982428	-72.036942	-146.991176
52394		0.248840	-0.557207	-0.189923	-0.769109	2.766997	-72.105914	-146.157211
52395		0.253372	-0.556689	-0.192653	-0.767323	2.536954	-72.165694	-145.302282
